"","mturk_id","trial_type","trial_type_detail","trial_index","block","rt","stimuli","pair1_stimulus1","pair1_stimulus2","pair1_stimulus3","pair2_stimulus1","pair2_stimulus2","pair2_stimulus3","correct_pair","Q0","Q1","url","ts","condition"
"1",10,"html","NULL",0,"NULL","43611","NULL","NULL","NULL","NULL","NULL","NULL","NULL","NULL","NULL","NULL","consent.html","2014-02-13 15:38:24","four-triple"
"2",10,"text","NULL",0,"NULL","11056","NULL","NULL","NULL","NULL","NULL","NULL","NULL","NULL","NULL","NULL","NULL","2014-02-13 15:38:24","four-triple"
"3",10,"vsl-animate-occlusion","sequence",0,"13","NULL","[""img/12.gif"",""img/7.gif"",""img/4.gif"",""img/5.gif"",""img/2.gif"",""img/6.gif"",""img/9.gif"",""img/1.gif"",""img/3.gif"",""img/10.gif"",""img/11.gif"",""img/8.gif"",""img/9.gif"",""img/1.gif"",""img/3.gif"",""img/10.gif"",""img/11.gif"",""img/8.gif"",""img/5.gif"",""img/2.gif"",""img/6.gif"",""img/12.gif"",""img/7.gif"",""img/4.gif"",""img/10.gif"",""img/11.gif"",""img/8.gif"",""img/9.gif"",""img/1.gif"",""img/3.gif"",""img/12.gif"",""img/7.gif"",""img/4.gif"",""img/5.gif"",""img/2.gif"",""img/6.gif"",""img/12.gif"",""img/7.gif"",""img/4.gif"",""img/10.gif"",""img/11.gif"",""img/8.gif"",""img/5.gif"",""img/2.gif"",""img/6.gif"",""img/9.gif"",""img/1.gif"",""img/3.gif"",""img/5.gif"",""img/2.gif"",""img/6.gif"",""img/10.gif"",""img/11.gif"",""img/8.gif"",""img/12.gif"",""img/7.gif"",""img/4.gif"",""img/9.gif"",""img/1.gif"",""img/3.gif"",""img/12.gif"",""img/7.gif"",""img/4.gif"",""img/9.gif"",""img/1.gif"",""img/3.gif"",""img/5.gif"",""img/2.gif"",""img/6.gif"",""img/10.gif"",""img/11.gif"",""img/8.gif"",""img/5.gif"",""img/2.gif"",""img/6.gif"",""img/10.gif"",""img/11.gif"",""img/8.gif"",""img/9.gif"",""img/1.gif"",""img/3.gif"",""img/12.gif"",""img/7.gif"",""img/4.gif"",""img/9.gif"",""img/1.gif"",""img/3.gif"",""img/12.gif"",""img/7.gif"",""img/4.gif"",""img/5.gif"",""img/2.gif"",""img/6.gif"",""img/10.gif"",""img/11.gif"",""img/8.gif"",""img/9.gif"",""img/1.gif"",""img/3.gif"",""img/12.gif"",""img/7.gif"",""img/4.gif"",""img/5.gif"",""img/2.gif"",""img/6.gif"",""img/10.gif"",""img/11.gif"",""img/8.gif"",""img/12.gif"",""img/7.gif"",""img/4.gif"",""img/5.gif"",""img/2.gif"",""img/6.gif"",""img/10.gif"",""img/11.gif"",""img/8.gif"",""img/9.gif"",""img/1.gif"",""img/3.gif"",""img/12.gif"",""img/7.gif"",""img/4.gif"",""img/10.gif"",""img/11.gif"",""img/8.gif"",""img/5.gif"",""img/2.gif"",""img/6.gif"",""img/9.gif"",""img/1.gif"",""img/3.gif"",""img/10.gif"",""img/11.gif"",""img/8.gif"",""img/12.gif"",""img/7.gif"",""img/4.gif"",""img/5.gif"",""img/2.gif"",""img/6.gif"",""img/9.gif"",""img/1.gif"",""img/3.gif"",""img/5.gif"",""img/2.gif"",""img/6.gif"",""img/9.gif"",""img/1.gif"",""img/3.gif"",""img/10.gif"",""img/11.gif"",""img/8.gif"",""img/12.gif"",""img/7.gif"",""img/4.gif"",""img/10.gif"",""img/11.gif"",""img/8.gif"",""img/5.gif"",""img/2.gif"",""img/6.gif"",""img/9.gif"",""img/1.gif"",""img/3.gif"",""img/12.gif"",""img/7.gif"",""img/4.gif"",""img/5.gif"",""img/2.gif"",""img/6.gif"",""img/10.gif"",""img/11.gif"",""img/8.gif"",""img/12.gif"",""img/7.gif"",""img/4.gif"",""img/9.gif"",""img/1.gif"",""img/3.gif"",""img/12.gif"",""img/7.gif"",""img/4.gif"",""img/5.gif"",""img/2.gif"",""img/6.gif"",""img/10.gif"",""img/11.gif"",""img/8.gif"",""img/9.gif"",""img/1.gif"",""img/3.gif"",""img/12.gif"",""img/7.gif"",""img/4.gif"",""img/5.gif"",""img/2.gif"",""img/6.gif"",""img/10.gif"",""img/11.gif"",""img/8.gif"",""img/9.gif"",""img/1.gif"",""img/3.gif"",""img/5.gif"",""img/2.gif"",""img/6.gif"",""img/10.gif"",""img/11.gif"",""img/8.gif"",""img/12.gif"",""img/7.gif"",""img/4.gif"",""img/9.gif"",""img/1.gif"",""img/3.gif"",""img/10.gif"",""img/11.gif"",""img/8.gif"",""img/9.gif"",""img/1.gif"",""img/3.gif"",""img/12.gif"",""img/7.gif"",""img/4.gif"",""img/5.gif"",""img/2.gif"",""img/6.gif"",""img/12.gif"",""img/7.gif"",""img/4.gif"",""img/10.gif"",""img/11.gif"",""img/8.gif"",""img/9.gif"",""img/1.gif"",""img/3.gif"",""img/5.gif"",""img/2.gif"",""img/6.gif"",""img/12.gif"",""img/7.gif"",""img/4.gif"",""img/5.gif"",""img/2.gif"",""img/6.gif"",""img/10.gif"",""img/11.gif"",""img/8.gif"",""img/9.gif"",""img/1.gif"",""img/3.gif"",""img/10.gif"",""img/11.gif"",""img/8.gif"",""img/9.gif"",""img/1.gif"",""img/3.gif"",""img/12.gif"",""img/7.gif"",""img/4.gif"",""img/5.gif"",""img/2.gif"",""img/6.gif"",""img/12.gif"",""img/7.gif"",""img/4.gif"",""img/5.gif"",""img/2.gif"",""img/6.gif"",""img/9.gif"",""img/1.gif"",""img/3.gif"",""img/10.gif"",""img/11.gif"",""img/8.gif"",""img/9.gif"",""img/1.gif"",""img/3.gif"",""img/12.gif"",""img/7.gif"",""img/4.gif"",""img/10.gif"",""img/11.gif"",""img/8.gif"",""img/5.gif"",""img/2.gif"",""img/6.gif""]","NULL","NULL","NULL","NULL","NULL","NULL","NULL","NULL","NULL","NULL","2014-02-13 15:38:24","four-triple"
"4",10,"text","NULL",0,"NULL","8642","NULL","NULL","NULL","NULL","NULL","NULL","NULL","NULL","NULL","NULL","NULL","2014-02-13 15:38:24","four-triple"
"5",10,"vsl-animate-occlusion","NULL",0,"NULL","NULL","[""img/10.gif"",""img/11.gif"",""img/8.gif""]","NULL","NULL","NULL","NULL","NULL","NULL","NULL","NULL","NULL","NULL","2014-02-13 15:38:24","four-triple"
"6",10,"vsl-animate-occlusion","NULL",0,"NULL","NULL","[""img/12.gif"",""img/1.gif"",""img/8.gif""]","NULL","NULL","NULL","NULL","NULL","NULL","NULL","NULL","NULL","NULL","2014-02-13 15:38:24","four-triple"
"7",10,"survey-likert","test",0,"0","7428","NULL","img/10.gif","img/11.gif","img/8.gif","img/12.gif","img/1.gif","img/8.gif","first","1","5","NULL","2014-02-13 15:38:24","four-triple"
"8",10,"vsl-animate-occlusion","NULL",0,"NULL","NULL","[""img/5.gif"",""img/2.gif"",""img/6.gif""]","NULL","NULL","NULL","NULL","NULL","NULL","NULL","NULL","NULL","NULL","2014-02-13 15:38:24","four-triple"
"9",10,"vsl-animate-occlusion","NULL",0,"NULL","NULL","[""img/9.gif"",""img/11.gif"",""img/6.gif""]","NULL","NULL","NULL","NULL","NULL","NULL","NULL","NULL","NULL","NULL","2014-02-13 15:38:24","four-triple"
"10",10,"survey-likert","test",0,"1","5222","NULL","img/5.gif","img/2.gif","img/6.gif","img/9.gif","img/11.gif","img/6.gif","first","1","6","NULL","2014-02-13 15:38:24","four-triple"
"11",10,"vsl-animate-occlusion","NULL",0,"NULL","NULL","[""img/9.gif"",""img/1.gif"",""img/3.gif""]","NULL","NULL","NULL","NULL","NULL","NULL","NULL","NULL","NULL","NULL","2014-02-13 15:38:24","four-triple"
"12",10,"vsl-animate-occlusion","NULL",0,"NULL","NULL","[""img/10.gif"",""img/2.gif"",""img/4.gif""]","NULL","NULL","NULL","NULL","NULL","NULL","NULL","NULL","NULL","NULL","2014-02-13 15:38:24","four-triple"
"13",10,"survey-likert","test",0,"2","3413","NULL","img/9.gif","img/1.gif","img/3.gif","img/10.gif","img/2.gif","img/4.gif","first","1","6","NULL","2014-02-13 15:38:24","four-triple"
"14",10,"vsl-animate-occlusion","NULL",0,"NULL","NULL","[""img/12.gif"",""img/1.gif"",""img/8.gif""]","NULL","NULL","NULL","NULL","NULL","NULL","NULL","NULL","NULL","NULL","2014-02-13 15:38:24","four-triple"
"15",10,"vsl-animate-occlusion","NULL",0,"NULL","NULL","[""img/5.gif"",""img/2.gif"",""img/6.gif""]","NULL","NULL","NULL","NULL","NULL","NULL","NULL","NULL","NULL","NULL","2014-02-13 15:38:24","four-triple"
"16",10,"survey-likert","test",0,"3","5495","NULL","img/12.gif","img/1.gif","img/8.gif","img/5.gif","img/2.gif","img/6.gif","second","3","4","NULL","2014-02-13 15:38:24","four-triple"
"17",10,"vsl-animate-occlusion","NULL",0,"NULL","NULL","[""img/9.gif"",""img/11.gif"",""img/6.gif""]","NULL","NULL","NULL","NULL","NULL","NULL","NULL","NULL","NULL","NULL","2014-02-13 15:38:24","four-triple"
"18",10,"vsl-animate-occlusion","NULL",0,"NULL","NULL","[""img/12.gif"",""img/7.gif"",""img/4.gif""]","NULL","NULL","NULL","NULL","NULL","NULL","NULL","NULL","NULL","NULL","2014-02-13 15:38:24","four-triple"
"19",10,"survey-likert","test",0,"4","3885","NULL","img/9.gif","img/11.gif","img/6.gif","img/12.gif","img/7.gif","img/4.gif","second","3","4","NULL","2014-02-13 15:38:24","four-triple"
"20",10,"vsl-animate-occlusion","NULL",0,"NULL","NULL","[""img/5.gif"",""img/7.gif"",""img/3.gif""]","NULL","NULL","NULL","NULL","NULL","NULL","NULL","NULL","NULL","NULL","2014-02-13 15:38:24","four-triple"
"21",10,"vsl-animate-occlusion","NULL",0,"NULL","NULL","[""img/12.gif"",""img/7.gif"",""img/4.gif""]","NULL","NULL","NULL","NULL","NULL","NULL","NULL","NULL","NULL","NULL","2014-02-13 15:38:24","four-triple"
"22",10,"survey-likert","test",0,"5","2694","NULL","img/5.gif","img/7.gif","img/3.gif","img/12.gif","img/7.gif","img/4.gif","second","3","7","NULL","2014-02-13 15:38:24","four-triple"
"23",10,"vsl-animate-occlusion","NULL",0,"NULL","NULL","[""img/12.gif"",""img/7.gif"",""img/4.gif""]","NULL","NULL","NULL","NULL","NULL","NULL","NULL","NULL","NULL","NULL","2014-02-13 15:38:24","four-triple"
"24",10,"vsl-animate-occlusion","NULL",0,"NULL","NULL","[""img/9.gif"",""img/11.gif"",""img/6.gif""]","NULL","NULL","NULL","NULL","NULL","NULL","NULL","NULL","NULL","NULL","2014-02-13 15:38:24","four-triple"
"25",10,"survey-likert","test",0,"6","3793","NULL","img/12.gif","img/7.gif","img/4.gif","img/9.gif","img/11.gif","img/6.gif","first","1","4","NULL","2014-02-13 15:38:24","four-triple"
"26",10,"vsl-animate-occlusion","NULL",0,"NULL","NULL","[""img/12.gif"",""img/7.gif"",""img/4.gif""]","NULL","NULL","NULL","NULL","NULL","NULL","NULL","NULL","NULL","NULL","2014-02-13 15:38:24","four-triple"
"27",10,"vsl-animate-occlusion","NULL",0,"NULL","NULL","[""img/5.gif"",""img/7.gif"",""img/3.gif""]","NULL","NULL","NULL","NULL","NULL","NULL","NULL","NULL","NULL","NULL","2014-02-13 15:38:24","four-triple"
"28",10,"survey-likert","test",0,"7","2959","NULL","img/12.gif","img/7.gif","img/4.gif","img/5.gif","img/7.gif","img/3.gif","first","1","7","NULL","2014-02-13 15:38:24","four-triple"
"29",10,"vsl-animate-occlusion","NULL",0,"NULL","NULL","[""img/10.gif"",""img/11.gif"",""img/8.gif""]","NULL","NULL","NULL","NULL","NULL","NULL","NULL","NULL","NULL","NULL","2014-02-13 15:38:24","four-triple"
"30",10,"vsl-animate-occlusion","NULL",0,"NULL","NULL","[""img/10.gif"",""img/2.gif"",""img/4.gif""]","NULL","NULL","NULL","NULL","NULL","NULL","NULL","NULL","NULL","NULL","2014-02-13 15:38:24","four-triple"
"31",10,"survey-likert","test",0,"8","3070","NULL","img/10.gif","img/11.gif","img/8.gif","img/10.gif","img/2.gif","img/4.gif","first","1","6","NULL","2014-02-13 15:38:24","four-triple"
"32",10,"vsl-animate-occlusion","NULL",0,"NULL","NULL","[""img/10.gif"",""img/11.gif"",""img/8.gif""]","NULL","NULL","NULL","NULL","NULL","NULL","NULL","NULL","NULL","NULL","2014-02-13 15:38:24","four-triple"
"33",10,"vsl-animate-occlusion","NULL",0,"NULL","NULL","[""img/9.gif"",""img/11.gif"",""img/6.gif""]","NULL","NULL","NULL","NULL","NULL","NULL","NULL","NULL","NULL","NULL","2014-02-13 15:38:24","four-triple"
"34",10,"survey-likert","test",0,"9","2468","NULL","img/10.gif","img/11.gif","img/8.gif","img/9.gif","img/11.gif","img/6.gif","first","1","3","NULL","2014-02-13 15:38:24","four-triple"
"35",10,"vsl-animate-occlusion","NULL",0,"NULL","NULL","[""img/12.gif"",""img/1.gif"",""img/8.gif""]","NULL","NULL","NULL","NULL","NULL","NULL","NULL","NULL","NULL","NULL","2014-02-13 15:38:24","four-triple"
"36",10,"vsl-animate-occlusion","NULL",0,"NULL","NULL","[""img/10.gif"",""img/11.gif"",""img/8.gif""]","NULL","NULL","NULL","NULL","NULL","NULL","NULL","NULL","NULL","NULL","2014-02-13 15:38:24","four-triple"
"37",10,"survey-likert","test",0,"10","3082","NULL","img/12.gif","img/1.gif","img/8.gif","img/10.gif","img/11.gif","img/8.gif","second","1","3","NULL","2014-02-13 15:38:24","four-triple"
"38",10,"vsl-animate-occlusion","NULL",0,"NULL","NULL","[""img/12.gif"",""img/1.gif"",""img/8.gif""]","NULL","NULL","NULL","NULL","NULL","NULL","NULL","NULL","NULL","NULL","2014-02-13 15:38:24","four-triple"
"39",10,"vsl-animate-occlusion","NULL",0,"NULL","NULL","[""img/12.gif"",""img/7.gif"",""img/4.gif""]","NULL","NULL","NULL","NULL","NULL","NULL","NULL","NULL","NULL","NULL","2014-02-13 15:38:24","four-triple"
"40",10,"survey-likert","test",0,"11","3226","NULL","img/12.gif","img/1.gif","img/8.gif","img/12.gif","img/7.gif","img/4.gif","second","3","5","NULL","2014-02-13 15:38:24","four-triple"
"41",10,"vsl-animate-occlusion","NULL",0,"NULL","NULL","[""img/5.gif"",""img/2.gif"",""img/6.gif""]","NULL","NULL","NULL","NULL","NULL","NULL","NULL","NULL","NULL","NULL","2014-02-13 15:38:24","four-triple"
"42",10,"vsl-animate-occlusion","NULL",0,"NULL","NULL","[""img/5.gif"",""img/7.gif"",""img/3.gif""]","NULL","NULL","NULL","NULL","NULL","NULL","NULL","NULL","NULL","NULL","2014-02-13 15:38:24","four-triple"
"43",10,"survey-likert","test",0,"12","2633","NULL","img/5.gif","img/2.gif","img/6.gif","img/5.gif","img/7.gif","img/3.gif","first","1","7","NULL","2014-02-13 15:38:24","four-triple"
"44",10,"vsl-animate-occlusion","NULL",0,"NULL","NULL","[""img/12.gif"",""img/1.gif"",""img/8.gif""]","NULL","NULL","NULL","NULL","NULL","NULL","NULL","NULL","NULL","NULL","2014-02-13 15:38:24","four-triple"
"45",10,"vsl-animate-occlusion","NULL",0,"NULL","NULL","[""img/9.gif"",""img/1.gif"",""img/3.gif""]","NULL","NULL","NULL","NULL","NULL","NULL","NULL","NULL","NULL","NULL","2014-02-13 15:38:24","four-triple"
"46",10,"survey-likert","test",0,"13","3633","NULL","img/12.gif","img/1.gif","img/8.gif","img/9.gif","img/1.gif","img/3.gif","second","1","5","NULL","2014-02-13 15:38:24","four-triple"
"47",10,"vsl-animate-occlusion","NULL",0,"NULL","NULL","[""img/5.gif"",""img/7.gif"",""img/3.gif""]","NULL","NULL","NULL","NULL","NULL","NULL","NULL","NULL","NULL","NULL","2014-02-13 15:38:24","four-triple"
"48",10,"vsl-animate-occlusion","NULL",0,"NULL","NULL","[""img/5.gif"",""img/2.gif"",""img/6.gif""]","NULL","NULL","NULL","NULL","NULL","NULL","NULL","NULL","NULL","NULL","2014-02-13 15:38:24","four-triple"
"49",10,"survey-likert","test",0,"14","3077","NULL","img/5.gif","img/7.gif","img/3.gif","img/5.gif","img/2.gif","img/6.gif","second","3","7","NULL","2014-02-13 15:38:24","four-triple"
"50",10,"vsl-animate-occlusion","NULL",0,"NULL","NULL","[""img/9.gif"",""img/11.gif"",""img/6.gif""]","NULL","NULL","NULL","NULL","NULL","NULL","NULL","NULL","NULL","NULL","2014-02-13 15:38:24","four-triple"
"51",10,"vsl-animate-occlusion","NULL",0,"NULL","NULL","[""img/9.gif"",""img/1.gif"",""img/3.gif""]","NULL","NULL","NULL","NULL","NULL","NULL","NULL","NULL","NULL","NULL","2014-02-13 15:38:24","four-triple"
"52",10,"survey-likert","test",0,"15","2787","NULL","img/9.gif","img/11.gif","img/6.gif","img/9.gif","img/1.gif","img/3.gif","second","3","6","NULL","2014-02-13 15:38:24","four-triple"
"53",10,"vsl-animate-occlusion","NULL",0,"NULL","NULL","[""img/5.gif"",""img/2.gif"",""img/6.gif""]","NULL","NULL","NULL","NULL","NULL","NULL","NULL","NULL","NULL","NULL","2014-02-13 15:38:24","four-triple"
"54",10,"vsl-animate-occlusion","NULL",0,"NULL","NULL","[""img/12.gif"",""img/1.gif"",""img/8.gif""]","NULL","NULL","NULL","NULL","NULL","NULL","NULL","NULL","NULL","NULL","2014-02-13 15:38:24","four-triple"
"55",10,"survey-likert","test",0,"16","2141","NULL","img/5.gif","img/2.gif","img/6.gif","img/12.gif","img/1.gif","img/8.gif","first","1","5","NULL","2014-02-13 15:38:24","four-triple"
"56",10,"vsl-animate-occlusion","NULL",0,"NULL","NULL","[""img/10.gif"",""img/11.gif"",""img/8.gif""]","NULL","NULL","NULL","NULL","NULL","NULL","NULL","NULL","NULL","NULL","2014-02-13 15:38:24","four-triple"
"57",10,"vsl-animate-occlusion","NULL",0,"NULL","NULL","[""img/5.gif"",""img/7.gif"",""img/3.gif""]","NULL","NULL","NULL","NULL","NULL","NULL","NULL","NULL","NULL","NULL","2014-02-13 15:38:24","four-triple"
"58",10,"survey-likert","test",0,"17","4112","NULL","img/10.gif","img/11.gif","img/8.gif","img/5.gif","img/7.gif","img/3.gif","first","1","7","NULL","2014-02-13 15:38:24","four-triple"
"59",10,"vsl-animate-occlusion","NULL",0,"NULL","NULL","[""img/12.gif"",""img/7.gif"",""img/4.gif""]","NULL","NULL","NULL","NULL","NULL","NULL","NULL","NULL","NULL","NULL","2014-02-13 15:38:24","four-triple"
"60",10,"vsl-animate-occlusion","NULL",0,"NULL","NULL","[""img/12.gif"",""img/1.gif"",""img/8.gif""]","NULL","NULL","NULL","NULL","NULL","NULL","NULL","NULL","NULL","NULL","2014-02-13 15:38:24","four-triple"
"61",10,"survey-likert","test",0,"18","2268","NULL","img/12.gif","img/7.gif","img/4.gif","img/12.gif","img/1.gif","img/8.gif","first","3","4","NULL","2014-02-13 15:38:24","four-triple"
"62",10,"vsl-animate-occlusion","NULL",0,"NULL","NULL","[""img/9.gif"",""img/1.gif"",""img/3.gif""]","NULL","NULL","NULL","NULL","NULL","NULL","NULL","NULL","NULL","NULL","2014-02-13 15:38:24","four-triple"
"63",10,"vsl-animate-occlusion","NULL",0,"NULL","NULL","[""img/12.gif"",""img/1.gif"",""img/8.gif""]","NULL","NULL","NULL","NULL","NULL","NULL","NULL","NULL","NULL","NULL","2014-02-13 15:38:24","four-triple"
"64",10,"survey-likert","test",0,"19","2042","NULL","img/9.gif","img/1.gif","img/3.gif","img/12.gif","img/1.gif","img/8.gif","first","3","4","NULL","2014-02-13 15:38:24","four-triple"
"65",10,"vsl-animate-occlusion","NULL",0,"NULL","NULL","[""img/5.gif"",""img/7.gif"",""img/3.gif""]","NULL","NULL","NULL","NULL","NULL","NULL","NULL","NULL","NULL","NULL","2014-02-13 15:38:24","four-triple"
"66",10,"vsl-animate-occlusion","NULL",0,"NULL","NULL","[""img/9.gif"",""img/1.gif"",""img/3.gif""]","NULL","NULL","NULL","NULL","NULL","NULL","NULL","NULL","NULL","NULL","2014-02-13 15:38:24","four-triple"
"67",10,"survey-likert","test",0,"20","6297","NULL","img/5.gif","img/7.gif","img/3.gif","img/9.gif","img/1.gif","img/3.gif","second","3","7","NULL","2014-02-13 15:38:24","four-triple"
"68",10,"vsl-animate-occlusion","NULL",0,"NULL","NULL","[""img/9.gif"",""img/11.gif"",""img/6.gif""]","NULL","NULL","NULL","NULL","NULL","NULL","NULL","NULL","NULL","NULL","2014-02-13 15:38:24","four-triple"
"69",10,"vsl-animate-occlusion","NULL",0,"NULL","NULL","[""img/5.gif"",""img/2.gif"",""img/6.gif""]","NULL","NULL","NULL","NULL","NULL","NULL","NULL","NULL","NULL","NULL","2014-02-13 15:38:24","four-triple"
"70",10,"survey-likert","test",0,"21","4442","NULL","img/9.gif","img/11.gif","img/6.gif","img/5.gif","img/2.gif","img/6.gif","second","3","7","NULL","2014-02-13 15:38:24","four-triple"
"71",10,"vsl-animate-occlusion","NULL",0,"NULL","NULL","[""img/5.gif"",""img/7.gif"",""img/3.gif""]","NULL","NULL","NULL","NULL","NULL","NULL","NULL","NULL","NULL","NULL","2014-02-13 15:38:24","four-triple"
"72",10,"vsl-animate-occlusion","NULL",0,"NULL","NULL","[""img/10.gif"",""img/11.gif"",""img/8.gif""]","NULL","NULL","NULL","NULL","NULL","NULL","NULL","NULL","NULL","NULL","2014-02-13 15:38:24","four-triple"
"73",10,"survey-likert","test",0,"22","2184","NULL","img/5.gif","img/7.gif","img/3.gif","img/10.gif","img/11.gif","img/8.gif","second","3","7","NULL","2014-02-13 15:38:24","four-triple"
"74",10,"vsl-animate-occlusion","NULL",0,"NULL","NULL","[""img/10.gif"",""img/2.gif"",""img/4.gif""]","NULL","NULL","NULL","NULL","NULL","NULL","NULL","NULL","NULL","NULL","2014-02-13 15:38:24","four-triple"
"75",10,"vsl-animate-occlusion","NULL",0,"NULL","NULL","[""img/5.gif"",""img/2.gif"",""img/6.gif""]","NULL","NULL","NULL","NULL","NULL","NULL","NULL","NULL","NULL","NULL","2014-02-13 15:38:24","four-triple"
"76",10,"survey-likert","test",0,"23","11407","NULL","img/10.gif","img/2.gif","img/4.gif","img/5.gif","img/2.gif","img/6.gif","second","3","7","NULL","2014-02-13 15:38:24","four-triple"
"77",10,"vsl-animate-occlusion","NULL",0,"NULL","NULL","[""img/9.gif"",""img/1.gif"",""img/3.gif""]","NULL","NULL","NULL","NULL","NULL","NULL","NULL","NULL","NULL","NULL","2014-02-13 15:38:24","four-triple"
"78",10,"vsl-animate-occlusion","NULL",0,"NULL","NULL","[""img/9.gif"",""img/11.gif"",""img/6.gif""]","NULL","NULL","NULL","NULL","NULL","NULL","NULL","NULL","NULL","NULL","2014-02-13 15:38:24","four-triple"
"79",10,"survey-likert","test",0,"24","5038","NULL","img/9.gif","img/1.gif","img/3.gif","img/9.gif","img/11.gif","img/6.gif","first","1","6","NULL","2014-02-13 15:38:24","four-triple"
"80",10,"vsl-animate-occlusion","NULL",0,"NULL","NULL","[""img/10.gif"",""img/2.gif"",""img/4.gif""]","NULL","NULL","NULL","NULL","NULL","NULL","NULL","NULL","NULL","NULL","2014-02-13 15:38:24","four-triple"
"81",10,"vsl-animate-occlusion","NULL",0,"NULL","NULL","[""img/10.gif"",""img/11.gif"",""img/8.gif""]","NULL","NULL","NULL","NULL","NULL","NULL","NULL","NULL","NULL","NULL","2014-02-13 15:38:24","four-triple"
"82",10,"survey-likert","test",0,"25","5359","NULL","img/10.gif","img/2.gif","img/4.gif","img/10.gif","img/11.gif","img/8.gif","second","3","6","NULL","2014-02-13 15:38:24","four-triple"
"83",10,"vsl-animate-occlusion","NULL",0,"NULL","NULL","[""img/10.gif"",""img/2.gif"",""img/4.gif""]","NULL","NULL","NULL","NULL","NULL","NULL","NULL","NULL","NULL","NULL","2014-02-13 15:38:24","four-triple"
"84",10,"vsl-animate-occlusion","NULL",0,"NULL","NULL","[""img/9.gif"",""img/1.gif"",""img/3.gif""]","NULL","NULL","NULL","NULL","NULL","NULL","NULL","NULL","NULL","NULL","2014-02-13 15:38:24","four-triple"
"85",10,"survey-likert","test",0,"26","3809","NULL","img/10.gif","img/2.gif","img/4.gif","img/9.gif","img/1.gif","img/3.gif","second","3","6","NULL","2014-02-13 15:38:24","four-triple"
"86",10,"vsl-animate-occlusion","NULL",0,"NULL","NULL","[""img/9.gif"",""img/11.gif"",""img/6.gif""]","NULL","NULL","NULL","NULL","NULL","NULL","NULL","NULL","NULL","NULL","2014-02-13 15:38:24","four-triple"
"87",10,"vsl-animate-occlusion","NULL",0,"NULL","NULL","[""img/10.gif"",""img/11.gif"",""img/8.gif""]","NULL","NULL","NULL","NULL","NULL","NULL","NULL","NULL","NULL","NULL","2014-02-13 15:38:24","four-triple"
"88",10,"survey-likert","test",0,"27","2894","NULL","img/9.gif","img/11.gif","img/6.gif","img/10.gif","img/11.gif","img/8.gif","second","3","6","NULL","2014-02-13 15:38:24","four-triple"
"89",10,"vsl-animate-occlusion","NULL",0,"NULL","NULL","[""img/10.gif"",""img/2.gif"",""img/4.gif""]","NULL","NULL","NULL","NULL","NULL","NULL","NULL","NULL","NULL","NULL","2014-02-13 15:38:24","four-triple"
"90",10,"vsl-animate-occlusion","NULL",0,"NULL","NULL","[""img/12.gif"",""img/7.gif"",""img/4.gif""]","NULL","NULL","NULL","NULL","NULL","NULL","NULL","NULL","NULL","NULL","2014-02-13 15:38:24","four-triple"
"91",10,"survey-likert","test",0,"28","4298","NULL","img/10.gif","img/2.gif","img/4.gif","img/12.gif","img/7.gif","img/4.gif","second","3","6","NULL","2014-02-13 15:38:24","four-triple"
"92",10,"vsl-animate-occlusion","NULL",0,"NULL","NULL","[""img/9.gif"",""img/1.gif"",""img/3.gif""]","NULL","NULL","NULL","NULL","NULL","NULL","NULL","NULL","NULL","NULL","2014-02-13 15:38:24","four-triple"
"93",10,"vsl-animate-occlusion","NULL",0,"NULL","NULL","[""img/5.gif"",""img/7.gif"",""img/3.gif""]","NULL","NULL","NULL","NULL","NULL","NULL","NULL","NULL","NULL","NULL","2014-02-13 15:38:24","four-triple"
"94",10,"survey-likert","test",0,"29","6114","NULL","img/9.gif","img/1.gif","img/3.gif","img/5.gif","img/7.gif","img/3.gif","first","1","7","NULL","2014-02-13 15:38:24","four-triple"
"95",10,"vsl-animate-occlusion","NULL",0,"NULL","NULL","[""img/5.gif"",""img/2.gif"",""img/6.gif""]","NULL","NULL","NULL","NULL","NULL","NULL","NULL","NULL","NULL","NULL","2014-02-13 15:38:24","four-triple"
"96",10,"vsl-animate-occlusion","NULL",0,"NULL","NULL","[""img/10.gif"",""img/2.gif"",""img/4.gif""]","NULL","NULL","NULL","NULL","NULL","NULL","NULL","NULL","NULL","NULL","2014-02-13 15:38:24","four-triple"
"97",10,"survey-likert","test",0,"30","3707","NULL","img/5.gif","img/2.gif","img/6.gif","img/10.gif","img/2.gif","img/4.gif","first","1","7","NULL","2014-02-13 15:38:24","four-triple"
"98",10,"vsl-animate-occlusion","NULL",0,"NULL","NULL","[""img/12.gif"",""img/7.gif"",""img/4.gif""]","NULL","NULL","NULL","NULL","NULL","NULL","NULL","NULL","NULL","NULL","2014-02-13 15:38:24","four-triple"
"99",10,"vsl-animate-occlusion","NULL",0,"NULL","NULL","[""img/10.gif"",""img/2.gif"",""img/4.gif""]","NULL","NULL","NULL","NULL","NULL","NULL","NULL","NULL","NULL","NULL","2014-02-13 15:38:24","four-triple"
"100",10,"survey-likert","test",0,"31","3937","NULL","img/12.gif","img/7.gif","img/4.gif","img/10.gif","img/2.gif","img/4.gif","first","1","7","NULL","2014-02-13 15:38:24","four-triple"
"101",10,"text","NULL",0,"NULL","4251","NULL","NULL","NULL","NULL","NULL","NULL","NULL","NULL","NULL","NULL","NULL","2014-02-13 15:38:24","four-triple"
"102",10,"survey-likert","attention",0,"NULL","10533","NULL","NULL","NULL","NULL","NULL","NULL","NULL","NULL","20","NULL","NULL","2014-02-13 15:38:24","four-triple"
"103",16,"html","NULL",0,"NULL","27687","NULL","NULL","NULL","NULL","NULL","NULL","NULL","NULL","NULL","NULL","consent.html","2014-02-13 15:39:07","four-triple"
"104",16,"text","NULL",0,"NULL","7638","NULL","NULL","NULL","NULL","NULL","NULL","NULL","NULL","NULL","NULL","NULL","2014-02-13 15:39:07","four-triple"
"105",16,"vsl-animate-occlusion","sequence",0,"13","NULL","[""img/1.gif"",""img/2.gif"",""img/9.gif"",""img/4.gif"",""img/3.gif"",""img/5.gif"",""img/8.gif"",""img/12.gif"",""img/7.gif"",""img/6.gif"",""img/11.gif"",""img/10.gif"",""img/8.gif"",""img/12.gif"",""img/7.gif"",""img/1.gif"",""img/2.gif"",""img/9.gif"",""img/6.gif"",""img/11.gif"",""img/10.gif"",""img/4.gif"",""img/3.gif"",""img/5.gif"",""img/1.gif"",""img/2.gif"",""img/9.gif"",""img/4.gif"",""img/3.gif"",""img/5.gif"",""img/6.gif"",""img/11.gif"",""img/10.gif"",""img/8.gif"",""img/12.gif"",""img/7.gif"",""img/6.gif"",""img/11.gif"",""img/10.gif"",""img/1.gif"",""img/2.gif"",""img/9.gif"",""img/4.gif"",""img/3.gif"",""img/5.gif"",""img/8.gif"",""img/12.gif"",""img/7.gif"",""img/4.gif"",""img/3.gif"",""img/5.gif"",""img/6.gif"",""img/11.gif"",""img/10.gif"",""img/1.gif"",""img/2.gif"",""img/9.gif"",""img/8.gif"",""img/12.gif"",""img/7.gif"",""img/4.gif"",""img/3.gif"",""img/5.gif"",""img/6.gif"",""img/11.gif"",""img/10.gif"",""img/8.gif"",""img/12.gif"",""img/7.gif"",""img/1.gif"",""img/2.gif"",""img/9.gif"",""img/4.gif"",""img/3.gif"",""img/5.gif"",""img/6.gif"",""img/11.gif"",""img/10.gif"",""img/1.gif"",""img/2.gif"",""img/9.gif"",""img/8.gif"",""img/12.gif"",""img/7.gif"",""img/6.gif"",""img/11.gif"",""img/10.gif"",""img/4.gif"",""img/3.gif"",""img/5.gif"",""img/8.gif"",""img/12.gif"",""img/7.gif"",""img/1.gif"",""img/2.gif"",""img/9.gif"",""img/8.gif"",""img/12.gif"",""img/7.gif"",""img/6.gif"",""img/11.gif"",""img/10.gif"",""img/1.gif"",""img/2.gif"",""img/9.gif"",""img/4.gif"",""img/3.gif"",""img/5.gif"",""img/6.gif"",""img/11.gif"",""img/10.gif"",""img/8.gif"",""img/12.gif"",""img/7.gif"",""img/1.gif"",""img/2.gif"",""img/9.gif"",""img/4.gif"",""img/3.gif"",""img/5.gif"",""img/6.gif"",""img/11.gif"",""img/10.gif"",""img/8.gif"",""img/12.gif"",""img/7.gif"",""img/4.gif"",""img/3.gif"",""img/5.gif"",""img/1.gif"",""img/2.gif"",""img/9.gif"",""img/4.gif"",""img/3.gif"",""img/5.gif"",""img/8.gif"",""img/12.gif"",""img/7.gif"",""img/6.gif"",""img/11.gif"",""img/10.gif"",""img/1.gif"",""img/2.gif"",""img/9.gif"",""img/4.gif"",""img/3.gif"",""img/5.gif"",""img/1.gif"",""img/2.gif"",""img/9.gif"",""img/8.gif"",""img/12.gif"",""img/7.gif"",""img/6.gif"",""img/11.gif"",""img/10.gif"",""img/8.gif"",""img/12.gif"",""img/7.gif"",""img/1.gif"",""img/2.gif"",""img/9.gif"",""img/6.gif"",""img/11.gif"",""img/10.gif"",""img/4.gif"",""img/3.gif"",""img/5.gif"",""img/8.gif"",""img/12.gif"",""img/7.gif"",""img/6.gif"",""img/11.gif"",""img/10.gif"",""img/1.gif"",""img/2.gif"",""img/9.gif"",""img/4.gif"",""img/3.gif"",""img/5.gif"",""img/6.gif"",""img/11.gif"",""img/10.gif"",""img/1.gif"",""img/2.gif"",""img/9.gif"",""img/4.gif"",""img/3.gif"",""img/5.gif"",""img/8.gif"",""img/12.gif"",""img/7.gif"",""img/4.gif"",""img/3.gif"",""img/5.gif"",""img/1.gif"",""img/2.gif"",""img/9.gif"",""img/8.gif"",""img/12.gif"",""img/7.gif"",""img/6.gif"",""img/11.gif"",""img/10.gif"",""img/1.gif"",""img/2.gif"",""img/9.gif"",""img/4.gif"",""img/3.gif"",""img/5.gif"",""img/6.gif"",""img/11.gif"",""img/10.gif"",""img/8.gif"",""img/12.gif"",""img/7.gif"",""img/4.gif"",""img/3.gif"",""img/5.gif"",""img/1.gif"",""img/2.gif"",""img/9.gif"",""img/8.gif"",""img/12.gif"",""img/7.gif"",""img/6.gif"",""img/11.gif"",""img/10.gif"",""img/8.gif"",""img/12.gif"",""img/7.gif"",""img/6.gif"",""img/11.gif"",""img/10.gif"",""img/1.gif"",""img/2.gif"",""img/9.gif"",""img/4.gif"",""img/3.gif"",""img/5.gif"",""img/6.gif"",""img/11.gif"",""img/10.gif"",""img/1.gif"",""img/2.gif"",""img/9.gif"",""img/8.gif"",""img/12.gif"",""img/7.gif"",""img/4.gif"",""img/3.gif"",""img/5.gif"",""img/1.gif"",""img/2.gif"",""img/9.gif"",""img/4.gif"",""img/3.gif"",""img/5.gif"",""img/8.gif"",""img/12.gif"",""img/7.gif"",""img/6.gif"",""img/11.gif"",""img/10.gif"",""img/4.gif"",""img/3.gif"",""img/5.gif"",""img/1.gif"",""img/2.gif"",""img/9.gif"",""img/6.gif"",""img/11.gif"",""img/10.gif"",""img/8.gif"",""img/12.gif"",""img/7.gif"",""img/4.gif"",""img/3.gif"",""img/5.gif"",""img/6.gif"",""img/11.gif"",""img/10.gif"",""img/1.gif"",""img/2.gif"",""img/9.gif"",""img/8.gif"",""img/12.gif"",""img/7.gif""]","NULL","NULL","NULL","NULL","NULL","NULL","NULL","NULL","NULL","NULL","2014-02-13 15:39:07","four-triple"
"106",16,"text","NULL",0,"NULL","15604","NULL","NULL","NULL","NULL","NULL","NULL","NULL","NULL","NULL","NULL","NULL","2014-02-13 15:39:07","four-triple"
"107",16,"vsl-animate-occlusion","NULL",0,"NULL","NULL","[""img/6.gif"",""img/3.gif"",""img/7.gif""]","NULL","NULL","NULL","NULL","NULL","NULL","NULL","NULL","NULL","NULL","2014-02-13 15:39:07","four-triple"
"108",16,"vsl-animate-occlusion","NULL",0,"NULL","NULL","[""img/1.gif"",""img/2.gif"",""img/9.gif""]","NULL","NULL","NULL","NULL","NULL","NULL","NULL","NULL","NULL","NULL","2014-02-13 15:39:07","four-triple"
"109",16,"survey-likert","test",0,"0","15837","NULL","img/6.gif","img/3.gif","img/7.gif","img/1.gif","img/2.gif","img/9.gif","second","1","4","NULL","2014-02-13 15:39:07","four-triple"
"110",16,"vsl-animate-occlusion","NULL",0,"NULL","NULL","[""img/4.gif"",""img/3.gif"",""img/5.gif""]","NULL","NULL","NULL","NULL","NULL","NULL","NULL","NULL","NULL","NULL","2014-02-13 15:39:07","four-triple"
"111",16,"vsl-animate-occlusion","NULL",0,"NULL","NULL","[""img/4.gif"",""img/12.gif"",""img/9.gif""]","NULL","NULL","NULL","NULL","NULL","NULL","NULL","NULL","NULL","NULL","2014-02-13 15:39:07","four-triple"
"112",16,"survey-likert","test",0,"1","5571","NULL","img/4.gif","img/3.gif","img/5.gif","img/4.gif","img/12.gif","img/9.gif","first","3","4","NULL","2014-02-13 15:39:07","four-triple"
"113",16,"vsl-animate-occlusion","NULL",0,"NULL","NULL","[""img/8.gif"",""img/2.gif"",""img/10.gif""]","NULL","NULL","NULL","NULL","NULL","NULL","NULL","NULL","NULL","NULL","2014-02-13 15:39:07","four-triple"
"114",16,"vsl-animate-occlusion","NULL",0,"NULL","NULL","[""img/1.gif"",""img/2.gif"",""img/9.gif""]","NULL","NULL","NULL","NULL","NULL","NULL","NULL","NULL","NULL","NULL","2014-02-13 15:39:07","four-triple"
"115",16,"survey-likert","test",0,"2","2942","NULL","img/8.gif","img/2.gif","img/10.gif","img/1.gif","img/2.gif","img/9.gif","second","3","6","NULL","2014-02-13 15:39:07","four-triple"
"116",16,"vsl-animate-occlusion","NULL",0,"NULL","NULL","[""img/6.gif"",""img/11.gif"",""img/10.gif""]","NULL","NULL","NULL","NULL","NULL","NULL","NULL","NULL","NULL","NULL","2014-02-13 15:39:07","four-triple"
"117",16,"vsl-animate-occlusion","NULL",0,"NULL","NULL","[""img/8.gif"",""img/2.gif"",""img/10.gif""]","NULL","NULL","NULL","NULL","NULL","NULL","NULL","NULL","NULL","NULL","2014-02-13 15:39:07","four-triple"
"118",16,"survey-likert","test",0,"3","3006","NULL","img/6.gif","img/11.gif","img/10.gif","img/8.gif","img/2.gif","img/10.gif","first","3","6","NULL","2014-02-13 15:39:07","four-triple"
"119",16,"vsl-animate-occlusion","NULL",0,"NULL","NULL","[""img/6.gif"",""img/11.gif"",""img/10.gif""]","NULL","NULL","NULL","NULL","NULL","NULL","NULL","NULL","NULL","NULL","2014-02-13 15:39:07","four-triple"
"120",16,"vsl-animate-occlusion","NULL",0,"NULL","NULL","[""img/6.gif"",""img/3.gif"",""img/7.gif""]","NULL","NULL","NULL","NULL","NULL","NULL","NULL","NULL","NULL","NULL","2014-02-13 15:39:07","four-triple"
"121",16,"survey-likert","test",0,"4","4235","NULL","img/6.gif","img/11.gif","img/10.gif","img/6.gif","img/3.gif","img/7.gif","first","1","6","NULL","2014-02-13 15:39:07","four-triple"
"122",16,"vsl-animate-occlusion","NULL",0,"NULL","NULL","[""img/1.gif"",""img/2.gif"",""img/9.gif""]","NULL","NULL","NULL","NULL","NULL","NULL","NULL","NULL","NULL","NULL","2014-02-13 15:39:07","four-triple"
"123",16,"vsl-animate-occlusion","NULL",0,"NULL","NULL","[""img/6.gif"",""img/3.gif"",""img/7.gif""]","NULL","NULL","NULL","NULL","NULL","NULL","NULL","NULL","NULL","NULL","2014-02-13 15:39:07","four-triple"
"124",16,"survey-likert","test",0,"5","3078","NULL","img/1.gif","img/2.gif","img/9.gif","img/6.gif","img/3.gif","img/7.gif","first","1","6","NULL","2014-02-13 15:39:07","four-triple"
"125",16,"vsl-animate-occlusion","NULL",0,"NULL","NULL","[""img/8.gif"",""img/12.gif"",""img/7.gif""]","NULL","NULL","NULL","NULL","NULL","NULL","NULL","NULL","NULL","NULL","2014-02-13 15:39:07","four-triple"
"126",16,"vsl-animate-occlusion","NULL",0,"NULL","NULL","[""img/4.gif"",""img/12.gif"",""img/9.gif""]","NULL","NULL","NULL","NULL","NULL","NULL","NULL","NULL","NULL","NULL","2014-02-13 15:39:07","four-triple"
"127",16,"survey-likert","test",0,"6","2946","NULL","img/8.gif","img/12.gif","img/7.gif","img/4.gif","img/12.gif","img/9.gif","first","1","3","NULL","2014-02-13 15:39:07","four-triple"
"128",16,"vsl-animate-occlusion","NULL",0,"NULL","NULL","[""img/4.gif"",""img/12.gif"",""img/9.gif""]","NULL","NULL","NULL","NULL","NULL","NULL","NULL","NULL","NULL","NULL","2014-02-13 15:39:07","four-triple"
"129",16,"vsl-animate-occlusion","NULL",0,"NULL","NULL","[""img/8.gif"",""img/12.gif"",""img/7.gif""]","NULL","NULL","NULL","NULL","NULL","NULL","NULL","NULL","NULL","NULL","2014-02-13 15:39:07","four-triple"
"130",16,"survey-likert","test",0,"7","2642","NULL","img/4.gif","img/12.gif","img/9.gif","img/8.gif","img/12.gif","img/7.gif","second","1","6","NULL","2014-02-13 15:39:07","four-triple"
"131",16,"vsl-animate-occlusion","NULL",0,"NULL","NULL","[""img/6.gif"",""img/3.gif"",""img/7.gif""]","NULL","NULL","NULL","NULL","NULL","NULL","NULL","NULL","NULL","NULL","2014-02-13 15:39:07","four-triple"
"132",16,"vsl-animate-occlusion","NULL",0,"NULL","NULL","[""img/6.gif"",""img/11.gif"",""img/10.gif""]","NULL","NULL","NULL","NULL","NULL","NULL","NULL","NULL","NULL","NULL","2014-02-13 15:39:07","four-triple"
"133",16,"survey-likert","test",0,"8","2729","NULL","img/6.gif","img/3.gif","img/7.gif","img/6.gif","img/11.gif","img/10.gif","second","1","6","NULL","2014-02-13 15:39:07","four-triple"
"134",16,"vsl-animate-occlusion","NULL",0,"NULL","NULL","[""img/4.gif"",""img/3.gif"",""img/5.gif""]","NULL","NULL","NULL","NULL","NULL","NULL","NULL","NULL","NULL","NULL","2014-02-13 15:39:07","four-triple"
"135",16,"vsl-animate-occlusion","NULL",0,"NULL","NULL","[""img/8.gif"",""img/2.gif"",""img/10.gif""]","NULL","NULL","NULL","NULL","NULL","NULL","NULL","NULL","NULL","NULL","2014-02-13 15:39:07","four-triple"
"136",16,"survey-likert","test",0,"9","3438","NULL","img/4.gif","img/3.gif","img/5.gif","img/8.gif","img/2.gif","img/10.gif","first","1","4","NULL","2014-02-13 15:39:07","four-triple"
"137",16,"vsl-animate-occlusion","NULL",0,"NULL","NULL","[""img/8.gif"",""img/12.gif"",""img/7.gif""]","NULL","NULL","NULL","NULL","NULL","NULL","NULL","NULL","NULL","NULL","2014-02-13 15:39:07","four-triple"
"138",16,"vsl-animate-occlusion","NULL",0,"NULL","NULL","[""img/8.gif"",""img/2.gif"",""img/10.gif""]","NULL","NULL","NULL","NULL","NULL","NULL","NULL","NULL","NULL","NULL","2014-02-13 15:39:07","four-triple"
"139",16,"survey-likert","test",0,"10","2797","NULL","img/8.gif","img/12.gif","img/7.gif","img/8.gif","img/2.gif","img/10.gif","first","1","4","NULL","2014-02-13 15:39:07","four-triple"
"140",16,"vsl-animate-occlusion","NULL",0,"NULL","NULL","[""img/1.gif"",""img/11.gif"",""img/5.gif""]","NULL","NULL","NULL","NULL","NULL","NULL","NULL","NULL","NULL","NULL","2014-02-13 15:39:07","four-triple"
"141",16,"vsl-animate-occlusion","NULL",0,"NULL","NULL","[""img/1.gif"",""img/2.gif"",""img/9.gif""]","NULL","NULL","NULL","NULL","NULL","NULL","NULL","NULL","NULL","NULL","2014-02-13 15:39:07","four-triple"
"142",16,"survey-likert","test",0,"11","4009","NULL","img/1.gif","img/11.gif","img/5.gif","img/1.gif","img/2.gif","img/9.gif","second","3","4","NULL","2014-02-13 15:39:07","four-triple"
"143",16,"vsl-animate-occlusion","NULL",0,"NULL","NULL","[""img/1.gif"",""img/11.gif"",""img/5.gif""]","NULL","NULL","NULL","NULL","NULL","NULL","NULL","NULL","NULL","NULL","2014-02-13 15:39:07","four-triple"
"144",16,"vsl-animate-occlusion","NULL",0,"NULL","NULL","[""img/6.gif"",""img/11.gif"",""img/10.gif""]","NULL","NULL","NULL","NULL","NULL","NULL","NULL","NULL","NULL","NULL","2014-02-13 15:39:07","four-triple"
"145",16,"survey-likert","test",0,"12","5008","NULL","img/1.gif","img/11.gif","img/5.gif","img/6.gif","img/11.gif","img/10.gif","second","1","4","NULL","2014-02-13 15:39:07","four-triple"
"146",16,"vsl-animate-occlusion","NULL",0,"NULL","NULL","[""img/4.gif"",""img/12.gif"",""img/9.gif""]","NULL","NULL","NULL","NULL","NULL","NULL","NULL","NULL","NULL","NULL","2014-02-13 15:39:07","four-triple"
"147",16,"vsl-animate-occlusion","NULL",0,"NULL","NULL","[""img/1.gif"",""img/2.gif"",""img/9.gif""]","NULL","NULL","NULL","NULL","NULL","NULL","NULL","NULL","NULL","NULL","2014-02-13 15:39:07","four-triple"
"148",16,"survey-likert","test",0,"13","2534","NULL","img/4.gif","img/12.gif","img/9.gif","img/1.gif","img/2.gif","img/9.gif","second","3","4","NULL","2014-02-13 15:39:07","four-triple"
"149",16,"vsl-animate-occlusion","NULL",0,"NULL","NULL","[""img/8.gif"",""img/12.gif"",""img/7.gif""]","NULL","NULL","NULL","NULL","NULL","NULL","NULL","NULL","NULL","NULL","2014-02-13 15:39:07","four-triple"
"150",16,"vsl-animate-occlusion","NULL",0,"NULL","NULL","[""img/6.gif"",""img/3.gif"",""img/7.gif""]","NULL","NULL","NULL","NULL","NULL","NULL","NULL","NULL","NULL","NULL","2014-02-13 15:39:07","four-triple"
"151",16,"survey-likert","test",0,"14","2366","NULL","img/8.gif","img/12.gif","img/7.gif","img/6.gif","img/3.gif","img/7.gif","first","3","4","NULL","2014-02-13 15:39:07","four-triple"
"152",16,"vsl-animate-occlusion","NULL",0,"NULL","NULL","[""img/4.gif"",""img/12.gif"",""img/9.gif""]","NULL","NULL","NULL","NULL","NULL","NULL","NULL","NULL","NULL","NULL","2014-02-13 15:39:07","four-triple"
"153",16,"vsl-animate-occlusion","NULL",0,"NULL","NULL","[""img/4.gif"",""img/3.gif"",""img/5.gif""]","NULL","NULL","NULL","NULL","NULL","NULL","NULL","NULL","NULL","NULL","2014-02-13 15:39:07","four-triple"
"154",16,"survey-likert","test",0,"15","1452","NULL","img/4.gif","img/12.gif","img/9.gif","img/4.gif","img/3.gif","img/5.gif","second","1","4","NULL","2014-02-13 15:39:07","four-triple"
"155",16,"vsl-animate-occlusion","NULL",0,"NULL","NULL","[""img/1.gif"",""img/11.gif"",""img/5.gif""]","NULL","NULL","NULL","NULL","NULL","NULL","NULL","NULL","NULL","NULL","2014-02-13 15:39:07","four-triple"
"156",16,"vsl-animate-occlusion","NULL",0,"NULL","NULL","[""img/4.gif"",""img/3.gif"",""img/5.gif""]","NULL","NULL","NULL","NULL","NULL","NULL","NULL","NULL","NULL","NULL","2014-02-13 15:39:07","four-triple"
"157",16,"survey-likert","test",0,"16","1860","NULL","img/1.gif","img/11.gif","img/5.gif","img/4.gif","img/3.gif","img/5.gif","second","1","4","NULL","2014-02-13 15:39:07","four-triple"
"158",16,"vsl-animate-occlusion","NULL",0,"NULL","NULL","[""img/8.gif"",""img/12.gif"",""img/7.gif""]","NULL","NULL","NULL","NULL","NULL","NULL","NULL","NULL","NULL","NULL","2014-02-13 15:39:07","four-triple"
"159",16,"vsl-animate-occlusion","NULL",0,"NULL","NULL","[""img/1.gif"",""img/11.gif"",""img/5.gif""]","NULL","NULL","NULL","NULL","NULL","NULL","NULL","NULL","NULL","NULL","2014-02-13 15:39:07","four-triple"
"160",16,"survey-likert","test",0,"17","1682","NULL","img/8.gif","img/12.gif","img/7.gif","img/1.gif","img/11.gif","img/5.gif","first","3","4","NULL","2014-02-13 15:39:07","four-triple"
"161",16,"vsl-animate-occlusion","NULL",0,"NULL","NULL","[""img/1.gif"",""img/11.gif"",""img/5.gif""]","NULL","NULL","NULL","NULL","NULL","NULL","NULL","NULL","NULL","NULL","2014-02-13 15:39:07","four-triple"
"162",16,"vsl-animate-occlusion","NULL",0,"NULL","NULL","[""img/8.gif"",""img/12.gif"",""img/7.gif""]","NULL","NULL","NULL","NULL","NULL","NULL","NULL","NULL","NULL","NULL","2014-02-13 15:39:07","four-triple"
"163",16,"survey-likert","test",0,"18","1570","NULL","img/1.gif","img/11.gif","img/5.gif","img/8.gif","img/12.gif","img/7.gif","second","1","4","NULL","2014-02-13 15:39:07","four-triple"
"164",16,"vsl-animate-occlusion","NULL",0,"NULL","NULL","[""img/8.gif"",""img/2.gif"",""img/10.gif""]","NULL","NULL","NULL","NULL","NULL","NULL","NULL","NULL","NULL","NULL","2014-02-13 15:39:07","four-triple"
"165",16,"vsl-animate-occlusion","NULL",0,"NULL","NULL","[""img/4.gif"",""img/3.gif"",""img/5.gif""]","NULL","NULL","NULL","NULL","NULL","NULL","NULL","NULL","NULL","NULL","2014-02-13 15:39:07","four-triple"
"166",16,"survey-likert","test",0,"19","1540","NULL","img/8.gif","img/2.gif","img/10.gif","img/4.gif","img/3.gif","img/5.gif","second","1","4","NULL","2014-02-13 15:39:07","four-triple"
"167",16,"vsl-animate-occlusion","NULL",0,"NULL","NULL","[""img/4.gif"",""img/3.gif"",""img/5.gif""]","NULL","NULL","NULL","NULL","NULL","NULL","NULL","NULL","NULL","NULL","2014-02-13 15:39:07","four-triple"
"168",16,"vsl-animate-occlusion","NULL",0,"NULL","NULL","[""img/6.gif"",""img/3.gif"",""img/7.gif""]","NULL","NULL","NULL","NULL","NULL","NULL","NULL","NULL","NULL","NULL","2014-02-13 15:39:07","four-triple"
"169",16,"survey-likert","test",0,"20","1800","NULL","img/4.gif","img/3.gif","img/5.gif","img/6.gif","img/3.gif","img/7.gif","first","3","4","NULL","2014-02-13 15:39:07","four-triple"
"170",16,"vsl-animate-occlusion","NULL",0,"NULL","NULL","[""img/6.gif"",""img/3.gif"",""img/7.gif""]","NULL","NULL","NULL","NULL","NULL","NULL","NULL","NULL","NULL","NULL","2014-02-13 15:39:07","four-triple"
"171",16,"vsl-animate-occlusion","NULL",0,"NULL","NULL","[""img/4.gif"",""img/3.gif"",""img/5.gif""]","NULL","NULL","NULL","NULL","NULL","NULL","NULL","NULL","NULL","NULL","2014-02-13 15:39:07","four-triple"
"172",16,"survey-likert","test",0,"21","2300","NULL","img/6.gif","img/3.gif","img/7.gif","img/4.gif","img/3.gif","img/5.gif","second","1","4","NULL","2014-02-13 15:39:07","four-triple"
"173",16,"vsl-animate-occlusion","NULL",0,"NULL","NULL","[""img/8.gif"",""img/2.gif"",""img/10.gif""]","NULL","NULL","NULL","NULL","NULL","NULL","NULL","NULL","NULL","NULL","2014-02-13 15:39:07","four-triple"
"174",16,"vsl-animate-occlusion","NULL",0,"NULL","NULL","[""img/8.gif"",""img/12.gif"",""img/7.gif""]","NULL","NULL","NULL","NULL","NULL","NULL","NULL","NULL","NULL","NULL","2014-02-13 15:39:07","four-triple"
"175",16,"survey-likert","test",0,"22","2983","NULL","img/8.gif","img/2.gif","img/10.gif","img/8.gif","img/12.gif","img/7.gif","second","1","4","NULL","2014-02-13 15:39:07","four-triple"
"176",16,"vsl-animate-occlusion","NULL",0,"NULL","NULL","[""img/4.gif"",""img/12.gif"",""img/9.gif""]","NULL","NULL","NULL","NULL","NULL","NULL","NULL","NULL","NULL","NULL","2014-02-13 15:39:07","four-triple"
"177",16,"vsl-animate-occlusion","NULL",0,"NULL","NULL","[""img/6.gif"",""img/11.gif"",""img/10.gif""]","NULL","NULL","NULL","NULL","NULL","NULL","NULL","NULL","NULL","NULL","2014-02-13 15:39:07","four-triple"
"178",16,"survey-likert","test",0,"23","6761","NULL","img/4.gif","img/12.gif","img/9.gif","img/6.gif","img/11.gif","img/10.gif","second","3","4","NULL","2014-02-13 15:39:07","four-triple"
"179",16,"vsl-animate-occlusion","NULL",0,"NULL","NULL","[""img/6.gif"",""img/11.gif"",""img/10.gif""]","NULL","NULL","NULL","NULL","NULL","NULL","NULL","NULL","NULL","NULL","2014-02-13 15:39:07","four-triple"
"180",16,"vsl-animate-occlusion","NULL",0,"NULL","NULL","[""img/1.gif"",""img/11.gif"",""img/5.gif""]","NULL","NULL","NULL","NULL","NULL","NULL","NULL","NULL","NULL","NULL","2014-02-13 15:39:07","four-triple"
"181",16,"survey-likert","test",0,"24","2974","NULL","img/6.gif","img/11.gif","img/10.gif","img/1.gif","img/11.gif","img/5.gif","first","3","4","NULL","2014-02-13 15:39:07","four-triple"
"182",16,"vsl-animate-occlusion","NULL",0,"NULL","NULL","[""img/1.gif"",""img/2.gif"",""img/9.gif""]","NULL","NULL","NULL","NULL","NULL","NULL","NULL","NULL","NULL","NULL","2014-02-13 15:39:07","four-triple"
"183",16,"vsl-animate-occlusion","NULL",0,"NULL","NULL","[""img/8.gif"",""img/2.gif"",""img/10.gif""]","NULL","NULL","NULL","NULL","NULL","NULL","NULL","NULL","NULL","NULL","2014-02-13 15:39:07","four-triple"
"184",16,"survey-likert","test",0,"25","2099","NULL","img/1.gif","img/2.gif","img/9.gif","img/8.gif","img/2.gif","img/10.gif","first","3","4","NULL","2014-02-13 15:39:07","four-triple"
"185",16,"vsl-animate-occlusion","NULL",0,"NULL","NULL","[""img/1.gif"",""img/2.gif"",""img/9.gif""]","NULL","NULL","NULL","NULL","NULL","NULL","NULL","NULL","NULL","NULL","2014-02-13 15:39:07","four-triple"
"186",16,"vsl-animate-occlusion","NULL",0,"NULL","NULL","[""img/4.gif"",""img/12.gif"",""img/9.gif""]","NULL","NULL","NULL","NULL","NULL","NULL","NULL","NULL","NULL","NULL","2014-02-13 15:39:07","four-triple"
"187",16,"survey-likert","test",0,"26","2714","NULL","img/1.gif","img/2.gif","img/9.gif","img/4.gif","img/12.gif","img/9.gif","first","1","4","NULL","2014-02-13 15:39:07","four-triple"
"188",16,"vsl-animate-occlusion","NULL",0,"NULL","NULL","[""img/1.gif"",""img/2.gif"",""img/9.gif""]","NULL","NULL","NULL","NULL","NULL","NULL","NULL","NULL","NULL","NULL","2014-02-13 15:39:07","four-triple"
"189",16,"vsl-animate-occlusion","NULL",0,"NULL","NULL","[""img/1.gif"",""img/11.gif"",""img/5.gif""]","NULL","NULL","NULL","NULL","NULL","NULL","NULL","NULL","NULL","NULL","2014-02-13 15:39:07","four-triple"
"190",16,"survey-likert","test",0,"27","2282","NULL","img/1.gif","img/2.gif","img/9.gif","img/1.gif","img/11.gif","img/5.gif","first","1","4","NULL","2014-02-13 15:39:07","four-triple"
"191",16,"vsl-animate-occlusion","NULL",0,"NULL","NULL","[""img/8.gif"",""img/2.gif"",""img/10.gif""]","NULL","NULL","NULL","NULL","NULL","NULL","NULL","NULL","NULL","NULL","2014-02-13 15:39:07","four-triple"
"192",16,"vsl-animate-occlusion","NULL",0,"NULL","NULL","[""img/6.gif"",""img/11.gif"",""img/10.gif""]","NULL","NULL","NULL","NULL","NULL","NULL","NULL","NULL","NULL","NULL","2014-02-13 15:39:07","four-triple"
"193",16,"survey-likert","test",0,"28","2068","NULL","img/8.gif","img/2.gif","img/10.gif","img/6.gif","img/11.gif","img/10.gif","second","1","4","NULL","2014-02-13 15:39:07","four-triple"
"194",16,"vsl-animate-occlusion","NULL",0,"NULL","NULL","[""img/4.gif"",""img/3.gif"",""img/5.gif""]","NULL","NULL","NULL","NULL","NULL","NULL","NULL","NULL","NULL","NULL","2014-02-13 15:39:07","four-triple"
"195",16,"vsl-animate-occlusion","NULL",0,"NULL","NULL","[""img/1.gif"",""img/11.gif"",""img/5.gif""]","NULL","NULL","NULL","NULL","NULL","NULL","NULL","NULL","NULL","NULL","2014-02-13 15:39:07","four-triple"
"196",16,"survey-likert","test",0,"29","2406","NULL","img/4.gif","img/3.gif","img/5.gif","img/1.gif","img/11.gif","img/5.gif","first","3","4","NULL","2014-02-13 15:39:07","four-triple"
"197",16,"vsl-animate-occlusion","NULL",0,"NULL","NULL","[""img/6.gif"",""img/3.gif"",""img/7.gif""]","NULL","NULL","NULL","NULL","NULL","NULL","NULL","NULL","NULL","NULL","2014-02-13 15:39:07","four-triple"
"198",16,"vsl-animate-occlusion","NULL",0,"NULL","NULL","[""img/8.gif"",""img/12.gif"",""img/7.gif""]","NULL","NULL","NULL","NULL","NULL","NULL","NULL","NULL","NULL","NULL","2014-02-13 15:39:07","four-triple"
"199",16,"survey-likert","test",0,"30","1992","NULL","img/6.gif","img/3.gif","img/7.gif","img/8.gif","img/12.gif","img/7.gif","second","3","4","NULL","2014-02-13 15:39:07","four-triple"
"200",16,"vsl-animate-occlusion","NULL",0,"NULL","NULL","[""img/6.gif"",""img/11.gif"",""img/10.gif""]","NULL","NULL","NULL","NULL","NULL","NULL","NULL","NULL","NULL","NULL","2014-02-13 15:39:07","four-triple"
"201",16,"vsl-animate-occlusion","NULL",0,"NULL","NULL","[""img/4.gif"",""img/12.gif"",""img/9.gif""]","NULL","NULL","NULL","NULL","NULL","NULL","NULL","NULL","NULL","NULL","2014-02-13 15:39:07","four-triple"
"202",16,"survey-likert","test",0,"31","2215","NULL","img/6.gif","img/11.gif","img/10.gif","img/4.gif","img/12.gif","img/9.gif","first","1","4","NULL","2014-02-13 15:39:07","four-triple"
"203",16,"text","NULL",0,"NULL","5298","NULL","NULL","NULL","NULL","NULL","NULL","NULL","NULL","NULL","NULL","NULL","2014-02-13 15:39:07","four-triple"
"204",16,"survey-likert","attention",0,"NULL","8396","NULL","NULL","NULL","NULL","NULL","NULL","NULL","NULL","21","NULL","NULL","2014-02-13 15:39:07","four-triple"
"205",21,"html","NULL",0,"NULL","7854","NULL","NULL","NULL","NULL","NULL","NULL","NULL","NULL","NULL","NULL","consent.html","2014-02-13 15:41:33","four-triple"
"206",21,"text","NULL",0,"NULL","10954","NULL","NULL","NULL","NULL","NULL","NULL","NULL","NULL","NULL","NULL","NULL","2014-02-13 15:41:33","four-triple"
"207",21,"vsl-animate-occlusion","sequence",0,"13","NULL","[""img/4.gif"",""img/9.gif"",""img/11.gif"",""img/3.gif"",""img/6.gif"",""img/5.gif"",""img/1.gif"",""img/12.gif"",""img/2.gif"",""img/7.gif"",""img/10.gif"",""img/8.gif"",""img/4.gif"",""img/9.gif"",""img/11.gif"",""img/3.gif"",""img/6.gif"",""img/5.gif"",""img/1.gif"",""img/12.gif"",""img/2.gif"",""img/7.gif"",""img/10.gif"",""img/8.gif"",""img/3.gif"",""img/6.gif"",""img/5.gif"",""img/1.gif"",""img/12.gif"",""img/2.gif"",""img/7.gif"",""img/10.gif"",""img/8.gif"",""img/4.gif"",""img/9.gif"",""img/11.gif"",""img/7.gif"",""img/10.gif"",""img/8.gif"",""img/1.gif"",""img/12.gif"",""img/2.gif"",""img/4.gif"",""img/9.gif"",""img/11.gif"",""img/3.gif"",""img/6.gif"",""img/5.gif"",""img/1.gif"",""img/12.gif"",""img/2.gif"",""img/3.gif"",""img/6.gif"",""img/5.gif"",""img/4.gif"",""img/9.gif"",""img/11.gif"",""img/7.gif"",""img/10.gif"",""img/8.gif"",""img/1.gif"",""img/12.gif"",""img/2.gif"",""img/3.gif"",""img/6.gif"",""img/5.gif"",""img/4.gif"",""img/9.gif"",""img/11.gif"",""img/7.gif"",""img/10.gif"",""img/8.gif"",""img/3.gif"",""img/6.gif"",""img/5.gif"",""img/7.gif"",""img/10.gif"",""img/8.gif"",""img/4.gif"",""img/9.gif"",""img/11.gif"",""img/1.gif"",""img/12.gif"",""img/2.gif"",""img/7.gif"",""img/10.gif"",""img/8.gif"",""img/4.gif"",""img/9.gif"",""img/11.gif"",""img/1.gif"",""img/12.gif"",""img/2.gif"",""img/3.gif"",""img/6.gif"",""img/5.gif"",""img/4.gif"",""img/9.gif"",""img/11.gif"",""img/1.gif"",""img/12.gif"",""img/2.gif"",""img/7.gif"",""img/10.gif"",""img/8.gif"",""img/3.gif"",""img/6.gif"",""img/5.gif"",""img/7.gif"",""img/10.gif"",""img/8.gif"",""img/1.gif"",""img/12.gif"",""img/2.gif"",""img/4.gif"",""img/9.gif"",""img/11.gif"",""img/3.gif"",""img/6.gif"",""img/5.gif"",""img/1.gif"",""img/12.gif"",""img/2.gif"",""img/4.gif"",""img/9.gif"",""img/11.gif"",""img/7.gif"",""img/10.gif"",""img/8.gif"",""img/3.gif"",""img/6.gif"",""img/5.gif"",""img/4.gif"",""img/9.gif"",""img/11.gif"",""img/1.gif"",""img/12.gif"",""img/2.gif"",""img/7.gif"",""img/10.gif"",""img/8.gif"",""img/3.gif"",""img/6.gif"",""img/5.gif"",""img/4.gif"",""img/9.gif"",""img/11.gif"",""img/1.gif"",""img/12.gif"",""img/2.gif"",""img/7.gif"",""img/10.gif"",""img/8.gif"",""img/3.gif"",""img/6.gif"",""img/5.gif"",""img/7.gif"",""img/10.gif"",""img/8.gif"",""img/4.gif"",""img/9.gif"",""img/11.gif"",""img/3.gif"",""img/6.gif"",""img/5.gif"",""img/1.gif"",""img/12.gif"",""img/2.gif"",""img/3.gif"",""img/6.gif"",""img/5.gif"",""img/1.gif"",""img/12.gif"",""img/2.gif"",""img/4.gif"",""img/9.gif"",""img/11.gif"",""img/7.gif"",""img/10.gif"",""img/8.gif"",""img/1.gif"",""img/12.gif"",""img/2.gif"",""img/7.gif"",""img/10.gif"",""img/8.gif"",""img/3.gif"",""img/6.gif"",""img/5.gif"",""img/4.gif"",""img/9.gif"",""img/11.gif"",""img/3.gif"",""img/6.gif"",""img/5.gif"",""img/4.gif"",""img/9.gif"",""img/11.gif"",""img/1.gif"",""img/12.gif"",""img/2.gif"",""img/7.gif"",""img/10.gif"",""img/8.gif"",""img/3.gif"",""img/6.gif"",""img/5.gif"",""img/7.gif"",""img/10.gif"",""img/8.gif"",""img/4.gif"",""img/9.gif"",""img/11.gif"",""img/1.gif"",""img/12.gif"",""img/2.gif"",""img/7.gif"",""img/10.gif"",""img/8.gif"",""img/4.gif"",""img/9.gif"",""img/11.gif"",""img/1.gif"",""img/12.gif"",""img/2.gif"",""img/3.gif"",""img/6.gif"",""img/5.gif"",""img/4.gif"",""img/9.gif"",""img/11.gif"",""img/1.gif"",""img/12.gif"",""img/2.gif"",""img/7.gif"",""img/10.gif"",""img/8.gif"",""img/3.gif"",""img/6.gif"",""img/5.gif"",""img/1.gif"",""img/12.gif"",""img/2.gif"",""img/7.gif"",""img/10.gif"",""img/8.gif"",""img/3.gif"",""img/6.gif"",""img/5.gif"",""img/4.gif"",""img/9.gif"",""img/11.gif"",""img/7.gif"",""img/10.gif"",""img/8.gif"",""img/4.gif"",""img/9.gif"",""img/11.gif"",""img/1.gif"",""img/12.gif"",""img/2.gif"",""img/3.gif"",""img/6.gif"",""img/5.gif"",""img/4.gif"",""img/9.gif"",""img/11.gif"",""img/7.gif"",""img/10.gif"",""img/8.gif"",""img/1.gif"",""img/12.gif"",""img/2.gif"",""img/3.gif"",""img/6.gif"",""img/5.gif"",""img/1.gif"",""img/12.gif"",""img/2.gif"",""img/3.gif"",""img/6.gif"",""img/5.gif"",""img/7.gif"",""img/10.gif"",""img/8.gif"",""img/4.gif"",""img/9.gif"",""img/11.gif""]","NULL","NULL","NULL","NULL","NULL","NULL","NULL","NULL","NULL","NULL","2014-02-13 15:41:33","four-triple"
"208",21,"text","NULL",0,"NULL","14842","NULL","NULL","NULL","NULL","NULL","NULL","NULL","NULL","NULL","NULL","NULL","2014-02-13 15:41:33","four-triple"
"209",21,"vsl-animate-occlusion","NULL",0,"NULL","NULL","[""img/3.gif"",""img/9.gif"",""img/2.gif""]","NULL","NULL","NULL","NULL","NULL","NULL","NULL","NULL","NULL","NULL","2014-02-13 15:41:33","four-triple"
"210",21,"vsl-animate-occlusion","NULL",0,"NULL","NULL","[""img/1.gif"",""img/12.gif"",""img/2.gif""]","NULL","NULL","NULL","NULL","NULL","NULL","NULL","NULL","NULL","NULL","2014-02-13 15:41:33","four-triple"
"211",21,"survey-likert","test",0,"0","6252","NULL","img/3.gif","img/9.gif","img/2.gif","img/1.gif","img/12.gif","img/2.gif","second","3","6","NULL","2014-02-13 15:41:33","four-triple"
"212",21,"vsl-animate-occlusion","NULL",0,"NULL","NULL","[""img/1.gif"",""img/12.gif"",""img/2.gif""]","NULL","NULL","NULL","NULL","NULL","NULL","NULL","NULL","NULL","NULL","2014-02-13 15:41:33","four-triple"
"213",21,"vsl-animate-occlusion","NULL",0,"NULL","NULL","[""img/4.gif"",""img/12.gif"",""img/8.gif""]","NULL","NULL","NULL","NULL","NULL","NULL","NULL","NULL","NULL","NULL","2014-02-13 15:41:33","four-triple"
"214",21,"survey-likert","test",0,"1","4909","NULL","img/1.gif","img/12.gif","img/2.gif","img/4.gif","img/12.gif","img/8.gif","first","1","5","NULL","2014-02-13 15:41:33","four-triple"
"215",21,"vsl-animate-occlusion","NULL",0,"NULL","NULL","[""img/1.gif"",""img/12.gif"",""img/2.gif""]","NULL","NULL","NULL","NULL","NULL","NULL","NULL","NULL","NULL","NULL","2014-02-13 15:41:33","four-triple"
"216",21,"vsl-animate-occlusion","NULL",0,"NULL","NULL","[""img/1.gif"",""img/10.gif"",""img/5.gif""]","NULL","NULL","NULL","NULL","NULL","NULL","NULL","NULL","NULL","NULL","2014-02-13 15:41:33","four-triple"
"217",21,"survey-likert","test",0,"2","3848","NULL","img/1.gif","img/12.gif","img/2.gif","img/1.gif","img/10.gif","img/5.gif","first","1","6","NULL","2014-02-13 15:41:33","four-triple"
"218",21,"vsl-animate-occlusion","NULL",0,"NULL","NULL","[""img/4.gif"",""img/9.gif"",""img/11.gif""]","NULL","NULL","NULL","NULL","NULL","NULL","NULL","NULL","NULL","NULL","2014-02-13 15:41:33","four-triple"
"219",21,"vsl-animate-occlusion","NULL",0,"NULL","NULL","[""img/4.gif"",""img/12.gif"",""img/8.gif""]","NULL","NULL","NULL","NULL","NULL","NULL","NULL","NULL","NULL","NULL","2014-02-13 15:41:33","four-triple"
"220",21,"survey-likert","test",0,"3","3691","NULL","img/4.gif","img/9.gif","img/11.gif","img/4.gif","img/12.gif","img/8.gif","first","1","7","NULL","2014-02-13 15:41:33","four-triple"
"221",21,"vsl-animate-occlusion","NULL",0,"NULL","NULL","[""img/4.gif"",""img/9.gif"",""img/11.gif""]","NULL","NULL","NULL","NULL","NULL","NULL","NULL","NULL","NULL","NULL","2014-02-13 15:41:33","four-triple"
"222",21,"vsl-animate-occlusion","NULL",0,"NULL","NULL","[""img/7.gif"",""img/6.gif"",""img/11.gif""]","NULL","NULL","NULL","NULL","NULL","NULL","NULL","NULL","NULL","NULL","2014-02-13 15:41:33","four-triple"
"223",21,"survey-likert","test",0,"4","5558","NULL","img/4.gif","img/9.gif","img/11.gif","img/7.gif","img/6.gif","img/11.gif","first","3","5","NULL","2014-02-13 15:41:33","four-triple"
"224",21,"vsl-animate-occlusion","NULL",0,"NULL","NULL","[""img/3.gif"",""img/9.gif"",""img/2.gif""]","NULL","NULL","NULL","NULL","NULL","NULL","NULL","NULL","NULL","NULL","2014-02-13 15:41:33","four-triple"
"225",21,"vsl-animate-occlusion","NULL",0,"NULL","NULL","[""img/7.gif"",""img/10.gif"",""img/8.gif""]","NULL","NULL","NULL","NULL","NULL","NULL","NULL","NULL","NULL","NULL","2014-02-13 15:41:33","four-triple"
"226",21,"survey-likert","test",0,"5","5265","NULL","img/3.gif","img/9.gif","img/2.gif","img/7.gif","img/10.gif","img/8.gif","second","1","4","NULL","2014-02-13 15:41:33","four-triple"
"227",21,"vsl-animate-occlusion","NULL",0,"NULL","NULL","[""img/1.gif"",""img/12.gif"",""img/2.gif""]","NULL","NULL","NULL","NULL","NULL","NULL","NULL","NULL","NULL","NULL","2014-02-13 15:41:33","four-triple"
"228",21,"vsl-animate-occlusion","NULL",0,"NULL","NULL","[""img/7.gif"",""img/6.gif"",""img/11.gif""]","NULL","NULL","NULL","NULL","NULL","NULL","NULL","NULL","NULL","NULL","2014-02-13 15:41:33","four-triple"
"229",21,"survey-likert","test",0,"6","3938","NULL","img/1.gif","img/12.gif","img/2.gif","img/7.gif","img/6.gif","img/11.gif","first","1","3","NULL","2014-02-13 15:41:33","four-triple"
"230",21,"vsl-animate-occlusion","NULL",0,"NULL","NULL","[""img/7.gif"",""img/6.gif"",""img/11.gif""]","NULL","NULL","NULL","NULL","NULL","NULL","NULL","NULL","NULL","NULL","2014-02-13 15:41:33","four-triple"
"231",21,"vsl-animate-occlusion","NULL",0,"NULL","NULL","[""img/3.gif"",""img/6.gif"",""img/5.gif""]","NULL","NULL","NULL","NULL","NULL","NULL","NULL","NULL","NULL","NULL","2014-02-13 15:41:33","four-triple"
"232",21,"survey-likert","test",0,"7","4316","NULL","img/7.gif","img/6.gif","img/11.gif","img/3.gif","img/6.gif","img/5.gif","second","1","3","NULL","2014-02-13 15:41:33","four-triple"
"233",21,"vsl-animate-occlusion","NULL",0,"NULL","NULL","[""img/3.gif"",""img/9.gif"",""img/2.gif""]","NULL","NULL","NULL","NULL","NULL","NULL","NULL","NULL","NULL","NULL","2014-02-13 15:41:33","four-triple"
"234",21,"vsl-animate-occlusion","NULL",0,"NULL","NULL","[""img/4.gif"",""img/9.gif"",""img/11.gif""]","NULL","NULL","NULL","NULL","NULL","NULL","NULL","NULL","NULL","NULL","2014-02-13 15:41:33","four-triple"
"235",21,"survey-likert","test",0,"8","4851","NULL","img/3.gif","img/9.gif","img/2.gif","img/4.gif","img/9.gif","img/11.gif","second","3","5","NULL","2014-02-13 15:41:33","four-triple"
"236",21,"vsl-animate-occlusion","NULL",0,"NULL","NULL","[""img/3.gif"",""img/6.gif"",""img/5.gif""]","NULL","NULL","NULL","NULL","NULL","NULL","NULL","NULL","NULL","NULL","2014-02-13 15:41:33","four-triple"
"237",21,"vsl-animate-occlusion","NULL",0,"NULL","NULL","[""img/4.gif"",""img/12.gif"",""img/8.gif""]","NULL","NULL","NULL","NULL","NULL","NULL","NULL","NULL","NULL","NULL","2014-02-13 15:41:33","four-triple"
"238",21,"survey-likert","test",0,"9","3312","NULL","img/3.gif","img/6.gif","img/5.gif","img/4.gif","img/12.gif","img/8.gif","first","1","5","NULL","2014-02-13 15:41:33","four-triple"
"239",21,"vsl-animate-occlusion","NULL",0,"NULL","NULL","[""img/4.gif"",""img/12.gif"",""img/8.gif""]","NULL","NULL","NULL","NULL","NULL","NULL","NULL","NULL","NULL","NULL","2014-02-13 15:41:33","four-triple"
"240",21,"vsl-animate-occlusion","NULL",0,"NULL","NULL","[""img/4.gif"",""img/9.gif"",""img/11.gif""]","NULL","NULL","NULL","NULL","NULL","NULL","NULL","NULL","NULL","NULL","2014-02-13 15:41:33","four-triple"
"241",21,"survey-likert","test",0,"10","3841","NULL","img/4.gif","img/12.gif","img/8.gif","img/4.gif","img/9.gif","img/11.gif","second","1","4","NULL","2014-02-13 15:41:33","four-triple"
"242",21,"vsl-animate-occlusion","NULL",0,"NULL","NULL","[""img/1.gif"",""img/10.gif"",""img/5.gif""]","NULL","NULL","NULL","NULL","NULL","NULL","NULL","NULL","NULL","NULL","2014-02-13 15:41:33","four-triple"
"243",21,"vsl-animate-occlusion","NULL",0,"NULL","NULL","[""img/1.gif"",""img/12.gif"",""img/2.gif""]","NULL","NULL","NULL","NULL","NULL","NULL","NULL","NULL","NULL","NULL","2014-02-13 15:41:33","four-triple"
"244",21,"survey-likert","test",0,"11","5415","NULL","img/1.gif","img/10.gif","img/5.gif","img/1.gif","img/12.gif","img/2.gif","second","3","6","NULL","2014-02-13 15:41:33","four-triple"
"245",21,"vsl-animate-occlusion","NULL",0,"NULL","NULL","[""img/3.gif"",""img/9.gif"",""img/2.gif""]","NULL","NULL","NULL","NULL","NULL","NULL","NULL","NULL","NULL","NULL","2014-02-13 15:41:33","four-triple"
"246",21,"vsl-animate-occlusion","NULL",0,"NULL","NULL","[""img/3.gif"",""img/6.gif"",""img/5.gif""]","NULL","NULL","NULL","NULL","NULL","NULL","NULL","NULL","NULL","NULL","2014-02-13 15:41:33","four-triple"
"247",21,"survey-likert","test",0,"12","3831","NULL","img/3.gif","img/9.gif","img/2.gif","img/3.gif","img/6.gif","img/5.gif","second","1","5","NULL","2014-02-13 15:41:33","four-triple"
"248",21,"vsl-animate-occlusion","NULL",0,"NULL","NULL","[""img/1.gif"",""img/10.gif"",""img/5.gif""]","NULL","NULL","NULL","NULL","NULL","NULL","NULL","NULL","NULL","NULL","2014-02-13 15:41:33","four-triple"
"249",21,"vsl-animate-occlusion","NULL",0,"NULL","NULL","[""img/4.gif"",""img/9.gif"",""img/11.gif""]","NULL","NULL","NULL","NULL","NULL","NULL","NULL","NULL","NULL","NULL","2014-02-13 15:41:33","four-triple"
"250",21,"survey-likert","test",0,"13","3793","NULL","img/1.gif","img/10.gif","img/5.gif","img/4.gif","img/9.gif","img/11.gif","second","3","7","NULL","2014-02-13 15:41:33","four-triple"
"251",21,"vsl-animate-occlusion","NULL",0,"NULL","NULL","[""img/7.gif"",""img/10.gif"",""img/8.gif""]","NULL","NULL","NULL","NULL","NULL","NULL","NULL","NULL","NULL","NULL","2014-02-13 15:41:33","four-triple"
"252",21,"vsl-animate-occlusion","NULL",0,"NULL","NULL","[""img/1.gif"",""img/10.gif"",""img/5.gif""]","NULL","NULL","NULL","NULL","NULL","NULL","NULL","NULL","NULL","NULL","2014-02-13 15:41:33","four-triple"
"253",21,"survey-likert","test",0,"14","5356","NULL","img/7.gif","img/10.gif","img/8.gif","img/1.gif","img/10.gif","img/5.gif","first","1","3","NULL","2014-02-13 15:41:33","four-triple"
"254",21,"vsl-animate-occlusion","NULL",0,"NULL","NULL","[""img/7.gif"",""img/6.gif"",""img/11.gif""]","NULL","NULL","NULL","NULL","NULL","NULL","NULL","NULL","NULL","NULL","2014-02-13 15:41:33","four-triple"
"255",21,"vsl-animate-occlusion","NULL",0,"NULL","NULL","[""img/4.gif"",""img/9.gif"",""img/11.gif""]","NULL","NULL","NULL","NULL","NULL","NULL","NULL","NULL","NULL","NULL","2014-02-13 15:41:33","four-triple"
"256",21,"survey-likert","test",0,"15","3287","NULL","img/7.gif","img/6.gif","img/11.gif","img/4.gif","img/9.gif","img/11.gif","second","3","7","NULL","2014-02-13 15:41:33","four-triple"
"257",21,"vsl-animate-occlusion","NULL",0,"NULL","NULL","[""img/7.gif"",""img/10.gif"",""img/8.gif""]","NULL","NULL","NULL","NULL","NULL","NULL","NULL","NULL","NULL","NULL","2014-02-13 15:41:33","four-triple"
"258",21,"vsl-animate-occlusion","NULL",0,"NULL","NULL","[""img/7.gif"",""img/6.gif"",""img/11.gif""]","NULL","NULL","NULL","NULL","NULL","NULL","NULL","NULL","NULL","NULL","2014-02-13 15:41:33","four-triple"
"259",21,"survey-likert","test",0,"16","4048","NULL","img/7.gif","img/10.gif","img/8.gif","img/7.gif","img/6.gif","img/11.gif","first","1","2","NULL","2014-02-13 15:41:33","four-triple"
"260",21,"vsl-animate-occlusion","NULL",0,"NULL","NULL","[""img/3.gif"",""img/6.gif"",""img/5.gif""]","NULL","NULL","NULL","NULL","NULL","NULL","NULL","NULL","NULL","NULL","2014-02-13 15:41:33","four-triple"
"261",21,"vsl-animate-occlusion","NULL",0,"NULL","NULL","[""img/1.gif"",""img/10.gif"",""img/5.gif""]","NULL","NULL","NULL","NULL","NULL","NULL","NULL","NULL","NULL","NULL","2014-02-13 15:41:33","four-triple"
"262",21,"survey-likert","test",0,"17","9290","NULL","img/3.gif","img/6.gif","img/5.gif","img/1.gif","img/10.gif","img/5.gif","first","1","2","NULL","2014-02-13 15:41:33","four-triple"
"263",21,"vsl-animate-occlusion","NULL",0,"NULL","NULL","[""img/7.gif"",""img/6.gif"",""img/11.gif""]","NULL","NULL","NULL","NULL","NULL","NULL","NULL","NULL","NULL","NULL","2014-02-13 15:41:33","four-triple"
"264",21,"vsl-animate-occlusion","NULL",0,"NULL","NULL","[""img/7.gif"",""img/10.gif"",""img/8.gif""]","NULL","NULL","NULL","NULL","NULL","NULL","NULL","NULL","NULL","NULL","2014-02-13 15:41:33","four-triple"
"265",21,"survey-likert","test",0,"18","4125","NULL","img/7.gif","img/6.gif","img/11.gif","img/7.gif","img/10.gif","img/8.gif","second","1","3","NULL","2014-02-13 15:41:33","four-triple"
"266",21,"vsl-animate-occlusion","NULL",0,"NULL","NULL","[""img/1.gif"",""img/12.gif"",""img/2.gif""]","NULL","NULL","NULL","NULL","NULL","NULL","NULL","NULL","NULL","NULL","2014-02-13 15:41:33","four-triple"
"267",21,"vsl-animate-occlusion","NULL",0,"NULL","NULL","[""img/3.gif"",""img/9.gif"",""img/2.gif""]","NULL","NULL","NULL","NULL","NULL","NULL","NULL","NULL","NULL","NULL","2014-02-13 15:41:33","four-triple"
"268",21,"survey-likert","test",0,"19","3019","NULL","img/1.gif","img/12.gif","img/2.gif","img/3.gif","img/9.gif","img/2.gif","first","3","4","NULL","2014-02-13 15:41:33","four-triple"
"269",21,"vsl-animate-occlusion","NULL",0,"NULL","NULL","[""img/7.gif"",""img/6.gif"",""img/11.gif""]","NULL","NULL","NULL","NULL","NULL","NULL","NULL","NULL","NULL","NULL","2014-02-13 15:41:33","four-triple"
"270",21,"vsl-animate-occlusion","NULL",0,"NULL","NULL","[""img/1.gif"",""img/12.gif"",""img/2.gif""]","NULL","NULL","NULL","NULL","NULL","NULL","NULL","NULL","NULL","NULL","2014-02-13 15:41:33","four-triple"
"271",21,"survey-likert","test",0,"20","2859","NULL","img/7.gif","img/6.gif","img/11.gif","img/1.gif","img/12.gif","img/2.gif","second","3","6","NULL","2014-02-13 15:41:33","four-triple"
"272",21,"vsl-animate-occlusion","NULL",0,"NULL","NULL","[""img/4.gif"",""img/9.gif"",""img/11.gif""]","NULL","NULL","NULL","NULL","NULL","NULL","NULL","NULL","NULL","NULL","2014-02-13 15:41:33","four-triple"
"273",21,"vsl-animate-occlusion","NULL",0,"NULL","NULL","[""img/3.gif"",""img/9.gif"",""img/2.gif""]","NULL","NULL","NULL","NULL","NULL","NULL","NULL","NULL","NULL","NULL","2014-02-13 15:41:33","four-triple"
"274",21,"survey-likert","test",0,"21","3533","NULL","img/4.gif","img/9.gif","img/11.gif","img/3.gif","img/9.gif","img/2.gif","first","1","7","NULL","2014-02-13 15:41:33","four-triple"
"275",21,"vsl-animate-occlusion","NULL",0,"NULL","NULL","[""img/1.gif"",""img/10.gif"",""img/5.gif""]","NULL","NULL","NULL","NULL","NULL","NULL","NULL","NULL","NULL","NULL","2014-02-13 15:41:33","four-triple"
"276",21,"vsl-animate-occlusion","NULL",0,"NULL","NULL","[""img/7.gif"",""img/10.gif"",""img/8.gif""]","NULL","NULL","NULL","NULL","NULL","NULL","NULL","NULL","NULL","NULL","2014-02-13 15:41:33","four-triple"
"277",21,"survey-likert","test",0,"22","3706","NULL","img/1.gif","img/10.gif","img/5.gif","img/7.gif","img/10.gif","img/8.gif","second","1","1","NULL","2014-02-13 15:41:33","four-triple"
"278",21,"vsl-animate-occlusion","NULL",0,"NULL","NULL","[""img/4.gif"",""img/12.gif"",""img/8.gif""]","NULL","NULL","NULL","NULL","NULL","NULL","NULL","NULL","NULL","NULL","2014-02-13 15:41:33","four-triple"
"279",21,"vsl-animate-occlusion","NULL",0,"NULL","NULL","[""img/1.gif"",""img/12.gif"",""img/2.gif""]","NULL","NULL","NULL","NULL","NULL","NULL","NULL","NULL","NULL","NULL","2014-02-13 15:41:33","four-triple"
"280",21,"survey-likert","test",0,"23","3708","NULL","img/4.gif","img/12.gif","img/8.gif","img/1.gif","img/12.gif","img/2.gif","second","3","4","NULL","2014-02-13 15:41:33","four-triple"
"281",21,"vsl-animate-occlusion","NULL",0,"NULL","NULL","[""img/7.gif"",""img/10.gif"",""img/8.gif""]","NULL","NULL","NULL","NULL","NULL","NULL","NULL","NULL","NULL","NULL","2014-02-13 15:41:33","four-triple"
"282",21,"vsl-animate-occlusion","NULL",0,"NULL","NULL","[""img/3.gif"",""img/9.gif"",""img/2.gif""]","NULL","NULL","NULL","NULL","NULL","NULL","NULL","NULL","NULL","NULL","2014-02-13 15:41:33","four-triple"
"283",21,"survey-likert","test",0,"24","4351","NULL","img/7.gif","img/10.gif","img/8.gif","img/3.gif","img/9.gif","img/2.gif","first","3","3","NULL","2014-02-13 15:41:33","four-triple"
"284",21,"vsl-animate-occlusion","NULL",0,"NULL","NULL","[""img/3.gif"",""img/6.gif"",""img/5.gif""]","NULL","NULL","NULL","NULL","NULL","NULL","NULL","NULL","NULL","NULL","2014-02-13 15:41:33","four-triple"
"285",21,"vsl-animate-occlusion","NULL",0,"NULL","NULL","[""img/7.gif"",""img/6.gif"",""img/11.gif""]","NULL","NULL","NULL","NULL","NULL","NULL","NULL","NULL","NULL","NULL","2014-02-13 15:41:33","four-triple"
"286",21,"survey-likert","test",0,"25","3903","NULL","img/3.gif","img/6.gif","img/5.gif","img/7.gif","img/6.gif","img/11.gif","first","1","3","NULL","2014-02-13 15:41:33","four-triple"
"287",21,"vsl-animate-occlusion","NULL",0,"NULL","NULL","[""img/4.gif"",""img/12.gif"",""img/8.gif""]","NULL","NULL","NULL","NULL","NULL","NULL","NULL","NULL","NULL","NULL","2014-02-13 15:41:33","four-triple"
"288",21,"vsl-animate-occlusion","NULL",0,"NULL","NULL","[""img/3.gif"",""img/6.gif"",""img/5.gif""]","NULL","NULL","NULL","NULL","NULL","NULL","NULL","NULL","NULL","NULL","2014-02-13 15:41:33","four-triple"
"289",21,"survey-likert","test",0,"26","3386","NULL","img/4.gif","img/12.gif","img/8.gif","img/3.gif","img/6.gif","img/5.gif","second","3","2","NULL","2014-02-13 15:41:33","four-triple"
"290",21,"vsl-animate-occlusion","NULL",0,"NULL","NULL","[""img/4.gif"",""img/12.gif"",""img/8.gif""]","NULL","NULL","NULL","NULL","NULL","NULL","NULL","NULL","NULL","NULL","2014-02-13 15:41:33","four-triple"
"291",21,"vsl-animate-occlusion","NULL",0,"NULL","NULL","[""img/7.gif"",""img/10.gif"",""img/8.gif""]","NULL","NULL","NULL","NULL","NULL","NULL","NULL","NULL","NULL","NULL","2014-02-13 15:41:33","four-triple"
"292",21,"survey-likert","test",0,"27","5357","NULL","img/4.gif","img/12.gif","img/8.gif","img/7.gif","img/10.gif","img/8.gif","second","1","2","NULL","2014-02-13 15:41:33","four-triple"
"293",21,"vsl-animate-occlusion","NULL",0,"NULL","NULL","[""img/4.gif"",""img/9.gif"",""img/11.gif""]","NULL","NULL","NULL","NULL","NULL","NULL","NULL","NULL","NULL","NULL","2014-02-13 15:41:33","four-triple"
"294",21,"vsl-animate-occlusion","NULL",0,"NULL","NULL","[""img/1.gif"",""img/10.gif"",""img/5.gif""]","NULL","NULL","NULL","NULL","NULL","NULL","NULL","NULL","NULL","NULL","2014-02-13 15:41:33","four-triple"
"295",21,"survey-likert","test",0,"28","3027","NULL","img/4.gif","img/9.gif","img/11.gif","img/1.gif","img/10.gif","img/5.gif","first","1","5","NULL","2014-02-13 15:41:33","four-triple"
"296",21,"vsl-animate-occlusion","NULL",0,"NULL","NULL","[""img/3.gif"",""img/6.gif"",""img/5.gif""]","NULL","NULL","NULL","NULL","NULL","NULL","NULL","NULL","NULL","NULL","2014-02-13 15:41:33","four-triple"
"297",21,"vsl-animate-occlusion","NULL",0,"NULL","NULL","[""img/3.gif"",""img/9.gif"",""img/2.gif""]","NULL","NULL","NULL","NULL","NULL","NULL","NULL","NULL","NULL","NULL","2014-02-13 15:41:33","four-triple"
"298",21,"survey-likert","test",0,"29","3458","NULL","img/3.gif","img/6.gif","img/5.gif","img/3.gif","img/9.gif","img/2.gif","first","3","5","NULL","2014-02-13 15:41:33","four-triple"
"299",21,"vsl-animate-occlusion","NULL",0,"NULL","NULL","[""img/1.gif"",""img/10.gif"",""img/5.gif""]","NULL","NULL","NULL","NULL","NULL","NULL","NULL","NULL","NULL","NULL","2014-02-13 15:41:33","four-triple"
"300",21,"vsl-animate-occlusion","NULL",0,"NULL","NULL","[""img/3.gif"",""img/6.gif"",""img/5.gif""]","NULL","NULL","NULL","NULL","NULL","NULL","NULL","NULL","NULL","NULL","2014-02-13 15:41:33","four-triple"
"301",21,"survey-likert","test",0,"30","2996","NULL","img/1.gif","img/10.gif","img/5.gif","img/3.gif","img/6.gif","img/5.gif","second","3","1","NULL","2014-02-13 15:41:33","four-triple"
"302",21,"vsl-animate-occlusion","NULL",0,"NULL","NULL","[""img/7.gif"",""img/10.gif"",""img/8.gif""]","NULL","NULL","NULL","NULL","NULL","NULL","NULL","NULL","NULL","NULL","2014-02-13 15:41:33","four-triple"
"303",21,"vsl-animate-occlusion","NULL",0,"NULL","NULL","[""img/4.gif"",""img/12.gif"",""img/8.gif""]","NULL","NULL","NULL","NULL","NULL","NULL","NULL","NULL","NULL","NULL","2014-02-13 15:41:33","four-triple"
"304",21,"survey-likert","test",0,"31","3459","NULL","img/7.gif","img/10.gif","img/8.gif","img/4.gif","img/12.gif","img/8.gif","first","3","2","NULL","2014-02-13 15:41:33","four-triple"
"305",21,"text","NULL",0,"NULL","4295","NULL","NULL","NULL","NULL","NULL","NULL","NULL","NULL","NULL","NULL","NULL","2014-02-13 15:41:33","four-triple"
"306",21,"survey-likert","attention",0,"NULL","9799","NULL","NULL","NULL","NULL","NULL","NULL","NULL","NULL","19","NULL","NULL","2014-02-13 15:41:33","four-triple"
"307",19,"html","NULL",0,"NULL","5412","NULL","NULL","NULL","NULL","NULL","NULL","NULL","NULL","NULL","NULL","consent.html","2014-02-13 15:57:00","four-triple"
"308",19,"text","NULL",0,"NULL","16441","NULL","NULL","NULL","NULL","NULL","NULL","NULL","NULL","NULL","NULL","NULL","2014-02-13 15:57:01","four-triple"
"309",19,"vsl-animate-occlusion","sequence",0,"13","NULL","[""img/3.gif"",""img/6.gif"",""img/5.gif"",""img/9.gif"",""img/8.gif"",""img/7.gif"",""img/12.gif"",""img/4.gif"",""img/2.gif"",""img/10.gif"",""img/11.gif"",""img/1.gif"",""img/3.gif"",""img/6.gif"",""img/5.gif"",""img/12.gif"",""img/4.gif"",""img/2.gif"",""img/9.gif"",""img/8.gif"",""img/7.gif"",""img/10.gif"",""img/11.gif"",""img/1.gif"",""img/9.gif"",""img/8.gif"",""img/7.gif"",""img/10.gif"",""img/11.gif"",""img/1.gif"",""img/12.gif"",""img/4.gif"",""img/2.gif"",""img/3.gif"",""img/6.gif"",""img/5.gif"",""img/12.gif"",""img/4.gif"",""img/2.gif"",""img/10.gif"",""img/11.gif"",""img/1.gif"",""img/3.gif"",""img/6.gif"",""img/5.gif"",""img/9.gif"",""img/8.gif"",""img/7.gif"",""img/10.gif"",""img/11.gif"",""img/1.gif"",""img/9.gif"",""img/8.gif"",""img/7.gif"",""img/12.gif"",""img/4.gif"",""img/2.gif"",""img/3.gif"",""img/6.gif"",""img/5.gif"",""img/10.gif"",""img/11.gif"",""img/1.gif"",""img/3.gif"",""img/6.gif"",""img/5.gif"",""img/12.gif"",""img/4.gif"",""img/2.gif"",""img/9.gif"",""img/8.gif"",""img/7.gif"",""img/12.gif"",""img/4.gif"",""img/2.gif"",""img/9.gif"",""img/8.gif"",""img/7.gif"",""img/3.gif"",""img/6.gif"",""img/5.gif"",""img/10.gif"",""img/11.gif"",""img/1.gif"",""img/3.gif"",""img/6.gif"",""img/5.gif"",""img/10.gif"",""img/11.gif"",""img/1.gif"",""img/9.gif"",""img/8.gif"",""img/7.gif"",""img/12.gif"",""img/4.gif"",""img/2.gif"",""img/3.gif"",""img/6.gif"",""img/5.gif"",""img/9.gif"",""img/8.gif"",""img/7.gif"",""img/10.gif"",""img/11.gif"",""img/1.gif"",""img/12.gif"",""img/4.gif"",""img/2.gif"",""img/9.gif"",""img/8.gif"",""img/7.gif"",""img/10.gif"",""img/11.gif"",""img/1.gif"",""img/3.gif"",""img/6.gif"",""img/5.gif"",""img/12.gif"",""img/4.gif"",""img/2.gif"",""img/10.gif"",""img/11.gif"",""img/1.gif"",""img/12.gif"",""img/4.gif"",""img/2.gif"",""img/9.gif"",""img/8.gif"",""img/7.gif"",""img/3.gif"",""img/6.gif"",""img/5.gif"",""img/12.gif"",""img/4.gif"",""img/2.gif"",""img/3.gif"",""img/6.gif"",""img/5.gif"",""img/9.gif"",""img/8.gif"",""img/7.gif"",""img/10.gif"",""img/11.gif"",""img/1.gif"",""img/12.gif"",""img/4.gif"",""img/2.gif"",""img/3.gif"",""img/6.gif"",""img/5.gif"",""img/10.gif"",""img/11.gif"",""img/1.gif"",""img/9.gif"",""img/8.gif"",""img/7.gif"",""img/10.gif"",""img/11.gif"",""img/1.gif"",""img/12.gif"",""img/4.gif"",""img/2.gif"",""img/9.gif"",""img/8.gif"",""img/7.gif"",""img/3.gif"",""img/6.gif"",""img/5.gif"",""img/10.gif"",""img/11.gif"",""img/1.gif"",""img/3.gif"",""img/6.gif"",""img/5.gif"",""img/9.gif"",""img/8.gif"",""img/7.gif"",""img/12.gif"",""img/4.gif"",""img/2.gif"",""img/3.gif"",""img/6.gif"",""img/5.gif"",""img/12.gif"",""img/4.gif"",""img/2.gif"",""img/9.gif"",""img/8.gif"",""img/7.gif"",""img/10.gif"",""img/11.gif"",""img/1.gif"",""img/12.gif"",""img/4.gif"",""img/2.gif"",""img/10.gif"",""img/11.gif"",""img/1.gif"",""img/3.gif"",""img/6.gif"",""img/5.gif"",""img/9.gif"",""img/8.gif"",""img/7.gif"",""img/3.gif"",""img/6.gif"",""img/5.gif"",""img/10.gif"",""img/11.gif"",""img/1.gif"",""img/9.gif"",""img/8.gif"",""img/7.gif"",""img/12.gif"",""img/4.gif"",""img/2.gif"",""img/9.gif"",""img/8.gif"",""img/7.gif"",""img/10.gif"",""img/11.gif"",""img/1.gif"",""img/12.gif"",""img/4.gif"",""img/2.gif"",""img/3.gif"",""img/6.gif"",""img/5.gif"",""img/10.gif"",""img/11.gif"",""img/1.gif"",""img/9.gif"",""img/8.gif"",""img/7.gif"",""img/12.gif"",""img/4.gif"",""img/2.gif"",""img/3.gif"",""img/6.gif"",""img/5.gif"",""img/9.gif"",""img/8.gif"",""img/7.gif"",""img/12.gif"",""img/4.gif"",""img/2.gif"",""img/10.gif"",""img/11.gif"",""img/1.gif"",""img/3.gif"",""img/6.gif"",""img/5.gif"",""img/12.gif"",""img/4.gif"",""img/2.gif"",""img/3.gif"",""img/6.gif"",""img/5.gif"",""img/10.gif"",""img/11.gif"",""img/1.gif"",""img/9.gif"",""img/8.gif"",""img/7.gif"",""img/3.gif"",""img/6.gif"",""img/5.gif"",""img/9.gif"",""img/8.gif"",""img/7.gif"",""img/12.gif"",""img/4.gif"",""img/2.gif"",""img/10.gif"",""img/11.gif"",""img/1.gif"",""img/12.gif"",""img/4.gif"",""img/2.gif"",""img/3.gif"",""img/6.gif"",""img/5.gif"",""img/9.gif"",""img/8.gif"",""img/7.gif"",""img/10.gif"",""img/11.gif"",""img/1.gif""]","NULL","NULL","NULL","NULL","NULL","NULL","NULL","NULL","NULL","NULL","2014-02-13 15:57:01","four-triple"
"310",19,"text","NULL",0,"NULL","13643","NULL","NULL","NULL","NULL","NULL","NULL","NULL","NULL","NULL","NULL","NULL","2014-02-13 15:57:01","four-triple"
"311",19,"vsl-animate-occlusion","NULL",0,"NULL","NULL","[""img/10.gif"",""img/11.gif"",""img/1.gif""]","NULL","NULL","NULL","NULL","NULL","NULL","NULL","NULL","NULL","NULL","2014-02-13 15:57:01","four-triple"
"312",19,"vsl-animate-occlusion","NULL",0,"NULL","NULL","[""img/3.gif"",""img/4.gif"",""img/1.gif""]","NULL","NULL","NULL","NULL","NULL","NULL","NULL","NULL","NULL","NULL","2014-02-13 15:57:01","four-triple"
"313",19,"survey-likert","test",0,"0","12003","NULL","img/10.gif","img/11.gif","img/1.gif","img/3.gif","img/4.gif","img/1.gif","first","1","7","NULL","2014-02-13 15:57:01","four-triple"
"314",19,"vsl-animate-occlusion","NULL",0,"NULL","NULL","[""img/9.gif"",""img/6.gif"",""img/2.gif""]","NULL","NULL","NULL","NULL","NULL","NULL","NULL","NULL","NULL","NULL","2014-02-13 15:57:01","four-triple"
"315",19,"vsl-animate-occlusion","NULL",0,"NULL","NULL","[""img/9.gif"",""img/8.gif"",""img/7.gif""]","NULL","NULL","NULL","NULL","NULL","NULL","NULL","NULL","NULL","NULL","2014-02-13 15:57:01","four-triple"
"316",19,"survey-likert","test",0,"1","10735","NULL","img/9.gif","img/6.gif","img/2.gif","img/9.gif","img/8.gif","img/7.gif","second","3","4","NULL","2014-02-13 15:57:01","four-triple"
"317",19,"vsl-animate-occlusion","NULL",0,"NULL","NULL","[""img/10.gif"",""img/8.gif"",""img/5.gif""]","NULL","NULL","NULL","NULL","NULL","NULL","NULL","NULL","NULL","NULL","2014-02-13 15:57:01","four-triple"
"318",19,"vsl-animate-occlusion","NULL",0,"NULL","NULL","[""img/3.gif"",""img/6.gif"",""img/5.gif""]","NULL","NULL","NULL","NULL","NULL","NULL","NULL","NULL","NULL","NULL","2014-02-13 15:57:01","four-triple"
"319",19,"survey-likert","test",0,"2","4429","NULL","img/10.gif","img/8.gif","img/5.gif","img/3.gif","img/6.gif","img/5.gif","second","3","5","NULL","2014-02-13 15:57:01","four-triple"
"320",19,"vsl-animate-occlusion","NULL",0,"NULL","NULL","[""img/9.gif"",""img/6.gif"",""img/2.gif""]","NULL","NULL","NULL","NULL","NULL","NULL","NULL","NULL","NULL","NULL","2014-02-13 15:57:01","four-triple"
"321",19,"vsl-animate-occlusion","NULL",0,"NULL","NULL","[""img/3.gif"",""img/6.gif"",""img/5.gif""]","NULL","NULL","NULL","NULL","NULL","NULL","NULL","NULL","NULL","NULL","2014-02-13 15:57:01","four-triple"
"322",19,"survey-likert","test",0,"3","4613","NULL","img/9.gif","img/6.gif","img/2.gif","img/3.gif","img/6.gif","img/5.gif","second","3","5","NULL","2014-02-13 15:57:01","four-triple"
"323",19,"vsl-animate-occlusion","NULL",0,"NULL","NULL","[""img/12.gif"",""img/4.gif"",""img/2.gif""]","NULL","NULL","NULL","NULL","NULL","NULL","NULL","NULL","NULL","NULL","2014-02-13 15:57:01","four-triple"
"324",19,"vsl-animate-occlusion","NULL",0,"NULL","NULL","[""img/9.gif"",""img/6.gif"",""img/2.gif""]","NULL","NULL","NULL","NULL","NULL","NULL","NULL","NULL","NULL","NULL","2014-02-13 15:57:01","four-triple"
"325",19,"survey-likert","test",0,"4","3839","NULL","img/12.gif","img/4.gif","img/2.gif","img/9.gif","img/6.gif","img/2.gif","first","1","6","NULL","2014-02-13 15:57:01","four-triple"
"326",19,"vsl-animate-occlusion","NULL",0,"NULL","NULL","[""img/10.gif"",""img/11.gif"",""img/1.gif""]","NULL","NULL","NULL","NULL","NULL","NULL","NULL","NULL","NULL","NULL","2014-02-13 15:57:01","four-triple"
"327",19,"vsl-animate-occlusion","NULL",0,"NULL","NULL","[""img/10.gif"",""img/8.gif"",""img/5.gif""]","NULL","NULL","NULL","NULL","NULL","NULL","NULL","NULL","NULL","NULL","2014-02-13 15:57:01","four-triple"
"328",19,"survey-likert","test",0,"5","3742","NULL","img/10.gif","img/11.gif","img/1.gif","img/10.gif","img/8.gif","img/5.gif","first","1","7","NULL","2014-02-13 15:57:01","four-triple"
"329",19,"vsl-animate-occlusion","NULL",0,"NULL","NULL","[""img/3.gif"",""img/4.gif"",""img/1.gif""]","NULL","NULL","NULL","NULL","NULL","NULL","NULL","NULL","NULL","NULL","2014-02-13 15:57:01","four-triple"
"330",19,"vsl-animate-occlusion","NULL",0,"NULL","NULL","[""img/10.gif"",""img/11.gif"",""img/1.gif""]","NULL","NULL","NULL","NULL","NULL","NULL","NULL","NULL","NULL","NULL","2014-02-13 15:57:01","four-triple"
"331",19,"survey-likert","test",0,"6","4064","NULL","img/3.gif","img/4.gif","img/1.gif","img/10.gif","img/11.gif","img/1.gif","second","3","7","NULL","2014-02-13 15:57:01","four-triple"
"332",19,"vsl-animate-occlusion","NULL",0,"NULL","NULL","[""img/9.gif"",""img/8.gif"",""img/7.gif""]","NULL","NULL","NULL","NULL","NULL","NULL","NULL","NULL","NULL","NULL","2014-02-13 15:57:01","four-triple"
"333",19,"vsl-animate-occlusion","NULL",0,"NULL","NULL","[""img/12.gif"",""img/11.gif"",""img/7.gif""]","NULL","NULL","NULL","NULL","NULL","NULL","NULL","NULL","NULL","NULL","2014-02-13 15:57:01","four-triple"
"334",19,"survey-likert","test",0,"7","6665","NULL","img/9.gif","img/8.gif","img/7.gif","img/12.gif","img/11.gif","img/7.gif","first","1","7","NULL","2014-02-13 15:57:01","four-triple"
"335",19,"vsl-animate-occlusion","NULL",0,"NULL","NULL","[""img/3.gif"",""img/6.gif"",""img/5.gif""]","NULL","NULL","NULL","NULL","NULL","NULL","NULL","NULL","NULL","NULL","2014-02-13 15:57:01","four-triple"
"336",19,"vsl-animate-occlusion","NULL",0,"NULL","NULL","[""img/9.gif"",""img/6.gif"",""img/2.gif""]","NULL","NULL","NULL","NULL","NULL","NULL","NULL","NULL","NULL","NULL","2014-02-13 15:57:01","four-triple"
"337",19,"survey-likert","test",0,"8","3774","NULL","img/3.gif","img/6.gif","img/5.gif","img/9.gif","img/6.gif","img/2.gif","first","1","6","NULL","2014-02-13 15:57:01","four-triple"
"338",19,"vsl-animate-occlusion","NULL",0,"NULL","NULL","[""img/10.gif"",""img/11.gif"",""img/1.gif""]","NULL","NULL","NULL","NULL","NULL","NULL","NULL","NULL","NULL","NULL","2014-02-13 15:57:01","four-triple"
"339",19,"vsl-animate-occlusion","NULL",0,"NULL","NULL","[""img/12.gif"",""img/11.gif"",""img/7.gif""]","NULL","NULL","NULL","NULL","NULL","NULL","NULL","NULL","NULL","NULL","2014-02-13 15:57:01","four-triple"
"340",19,"survey-likert","test",0,"9","3565","NULL","img/10.gif","img/11.gif","img/1.gif","img/12.gif","img/11.gif","img/7.gif","first","1","7","NULL","2014-02-13 15:57:01","four-triple"
"341",19,"vsl-animate-occlusion","NULL",0,"NULL","NULL","[""img/12.gif"",""img/11.gif"",""img/7.gif""]","NULL","NULL","NULL","NULL","NULL","NULL","NULL","NULL","NULL","NULL","2014-02-13 15:57:01","four-triple"
"342",19,"vsl-animate-occlusion","NULL",0,"NULL","NULL","[""img/10.gif"",""img/11.gif"",""img/1.gif""]","NULL","NULL","NULL","NULL","NULL","NULL","NULL","NULL","NULL","NULL","2014-02-13 15:57:01","four-triple"
"343",19,"survey-likert","test",0,"10","3643","NULL","img/12.gif","img/11.gif","img/7.gif","img/10.gif","img/11.gif","img/1.gif","second","3","7","NULL","2014-02-13 15:57:01","four-triple"
"344",19,"vsl-animate-occlusion","NULL",0,"NULL","NULL","[""img/12.gif"",""img/4.gif"",""img/2.gif""]","NULL","NULL","NULL","NULL","NULL","NULL","NULL","NULL","NULL","NULL","2014-02-13 15:57:01","four-triple"
"345",19,"vsl-animate-occlusion","NULL",0,"NULL","NULL","[""img/12.gif"",""img/11.gif"",""img/7.gif""]","NULL","NULL","NULL","NULL","NULL","NULL","NULL","NULL","NULL","NULL","2014-02-13 15:57:01","four-triple"
"346",19,"survey-likert","test",0,"11","2838","NULL","img/12.gif","img/4.gif","img/2.gif","img/12.gif","img/11.gif","img/7.gif","first","1","7","NULL","2014-02-13 15:57:01","four-triple"
"347",19,"vsl-animate-occlusion","NULL",0,"NULL","NULL","[""img/12.gif"",""img/4.gif"",""img/2.gif""]","NULL","NULL","NULL","NULL","NULL","NULL","NULL","NULL","NULL","NULL","2014-02-13 15:57:01","four-triple"
"348",19,"vsl-animate-occlusion","NULL",0,"NULL","NULL","[""img/3.gif"",""img/4.gif"",""img/1.gif""]","NULL","NULL","NULL","NULL","NULL","NULL","NULL","NULL","NULL","NULL","2014-02-13 15:57:01","four-triple"
"349",19,"survey-likert","test",0,"12","3174","NULL","img/12.gif","img/4.gif","img/2.gif","img/3.gif","img/4.gif","img/1.gif","first","1","7","NULL","2014-02-13 15:57:01","four-triple"
"350",19,"vsl-animate-occlusion","NULL",0,"NULL","NULL","[""img/9.gif"",""img/6.gif"",""img/2.gif""]","NULL","NULL","NULL","NULL","NULL","NULL","NULL","NULL","NULL","NULL","2014-02-13 15:57:01","four-triple"
"351",19,"vsl-animate-occlusion","NULL",0,"NULL","NULL","[""img/12.gif"",""img/4.gif"",""img/2.gif""]","NULL","NULL","NULL","NULL","NULL","NULL","NULL","NULL","NULL","NULL","2014-02-13 15:57:01","four-triple"
"352",19,"survey-likert","test",0,"13","3920","NULL","img/9.gif","img/6.gif","img/2.gif","img/12.gif","img/4.gif","img/2.gif","second","3","4","NULL","2014-02-13 15:57:01","four-triple"
"353",19,"vsl-animate-occlusion","NULL",0,"NULL","NULL","[""img/3.gif"",""img/4.gif"",""img/1.gif""]","NULL","NULL","NULL","NULL","NULL","NULL","NULL","NULL","NULL","NULL","2014-02-13 15:57:01","four-triple"
"354",19,"vsl-animate-occlusion","NULL",0,"NULL","NULL","[""img/3.gif"",""img/6.gif"",""img/5.gif""]","NULL","NULL","NULL","NULL","NULL","NULL","NULL","NULL","NULL","NULL","2014-02-13 15:57:01","four-triple"
"355",19,"survey-likert","test",0,"14","3954","NULL","img/3.gif","img/4.gif","img/1.gif","img/3.gif","img/6.gif","img/5.gif","second","3","6","NULL","2014-02-13 15:57:01","four-triple"
"356",19,"vsl-animate-occlusion","NULL",0,"NULL","NULL","[""img/12.gif"",""img/11.gif"",""img/7.gif""]","NULL","NULL","NULL","NULL","NULL","NULL","NULL","NULL","NULL","NULL","2014-02-13 15:57:01","four-triple"
"357",19,"vsl-animate-occlusion","NULL",0,"NULL","NULL","[""img/3.gif"",""img/6.gif"",""img/5.gif""]","NULL","NULL","NULL","NULL","NULL","NULL","NULL","NULL","NULL","NULL","2014-02-13 15:57:01","four-triple"
"358",19,"survey-likert","test",0,"15","2839","NULL","img/12.gif","img/11.gif","img/7.gif","img/3.gif","img/6.gif","img/5.gif","second","3","7","NULL","2014-02-13 15:57:01","four-triple"
"359",19,"vsl-animate-occlusion","NULL",0,"NULL","NULL","[""img/12.gif"",""img/11.gif"",""img/7.gif""]","NULL","NULL","NULL","NULL","NULL","NULL","NULL","NULL","NULL","NULL","2014-02-13 15:57:01","four-triple"
"360",19,"vsl-animate-occlusion","NULL",0,"NULL","NULL","[""img/9.gif"",""img/8.gif"",""img/7.gif""]","NULL","NULL","NULL","NULL","NULL","NULL","NULL","NULL","NULL","NULL","2014-02-13 15:57:01","four-triple"
"361",19,"survey-likert","test",0,"16","3224","NULL","img/12.gif","img/11.gif","img/7.gif","img/9.gif","img/8.gif","img/7.gif","second","3","7","NULL","2014-02-13 15:57:01","four-triple"
"362",19,"vsl-animate-occlusion","NULL",0,"NULL","NULL","[""img/3.gif"",""img/6.gif"",""img/5.gif""]","NULL","NULL","NULL","NULL","NULL","NULL","NULL","NULL","NULL","NULL","2014-02-13 15:57:01","four-triple"
"363",19,"vsl-animate-occlusion","NULL",0,"NULL","NULL","[""img/12.gif"",""img/11.gif"",""img/7.gif""]","NULL","NULL","NULL","NULL","NULL","NULL","NULL","NULL","NULL","NULL","2014-02-13 15:57:01","four-triple"
"364",19,"survey-likert","test",0,"17","2921","NULL","img/3.gif","img/6.gif","img/5.gif","img/12.gif","img/11.gif","img/7.gif","first","1","7","NULL","2014-02-13 15:57:01","four-triple"
"365",19,"vsl-animate-occlusion","NULL",0,"NULL","NULL","[""img/9.gif"",""img/8.gif"",""img/7.gif""]","NULL","NULL","NULL","NULL","NULL","NULL","NULL","NULL","NULL","NULL","2014-02-13 15:57:01","four-triple"
"366",19,"vsl-animate-occlusion","NULL",0,"NULL","NULL","[""img/9.gif"",""img/6.gif"",""img/2.gif""]","NULL","NULL","NULL","NULL","NULL","NULL","NULL","NULL","NULL","NULL","2014-02-13 15:57:01","four-triple"
"367",19,"survey-likert","test",0,"18","10851","NULL","img/9.gif","img/8.gif","img/7.gif","img/9.gif","img/6.gif","img/2.gif","first","3","3","NULL","2014-02-13 15:57:01","four-triple"
"368",19,"vsl-animate-occlusion","NULL",0,"NULL","NULL","[""img/9.gif"",""img/6.gif"",""img/2.gif""]","NULL","NULL","NULL","NULL","NULL","NULL","NULL","NULL","NULL","NULL","2014-02-13 15:57:01","four-triple"
"369",19,"vsl-animate-occlusion","NULL",0,"NULL","NULL","[""img/10.gif"",""img/11.gif"",""img/1.gif""]","NULL","NULL","NULL","NULL","NULL","NULL","NULL","NULL","NULL","NULL","2014-02-13 15:57:01","four-triple"
"370",19,"survey-likert","test",0,"19","2986","NULL","img/9.gif","img/6.gif","img/2.gif","img/10.gif","img/11.gif","img/1.gif","second","3","7","NULL","2014-02-13 15:57:01","four-triple"
"371",19,"vsl-animate-occlusion","NULL",0,"NULL","NULL","[""img/10.gif"",""img/8.gif"",""img/5.gif""]","NULL","NULL","NULL","NULL","NULL","NULL","NULL","NULL","NULL","NULL","2014-02-13 15:57:01","four-triple"
"372",19,"vsl-animate-occlusion","NULL",0,"NULL","NULL","[""img/12.gif"",""img/4.gif"",""img/2.gif""]","NULL","NULL","NULL","NULL","NULL","NULL","NULL","NULL","NULL","NULL","2014-02-13 15:57:01","four-triple"
"373",19,"survey-likert","test",0,"20","2808","NULL","img/10.gif","img/8.gif","img/5.gif","img/12.gif","img/4.gif","img/2.gif","second","3","7","NULL","2014-02-13 15:57:01","four-triple"
"374",19,"vsl-animate-occlusion","NULL",0,"NULL","NULL","[""img/3.gif"",""img/4.gif"",""img/1.gif""]","NULL","NULL","NULL","NULL","NULL","NULL","NULL","NULL","NULL","NULL","2014-02-13 15:57:01","four-triple"
"375",19,"vsl-animate-occlusion","NULL",0,"NULL","NULL","[""img/9.gif"",""img/8.gif"",""img/7.gif""]","NULL","NULL","NULL","NULL","NULL","NULL","NULL","NULL","NULL","NULL","2014-02-13 15:57:01","four-triple"
"376",19,"survey-likert","test",0,"21","2845","NULL","img/3.gif","img/4.gif","img/1.gif","img/9.gif","img/8.gif","img/7.gif","second","3","7","NULL","2014-02-13 15:57:01","four-triple"
"377",19,"vsl-animate-occlusion","NULL",0,"NULL","NULL","[""img/9.gif"",""img/8.gif"",""img/7.gif""]","NULL","NULL","NULL","NULL","NULL","NULL","NULL","NULL","NULL","NULL","2014-02-13 15:57:01","four-triple"
"378",19,"vsl-animate-occlusion","NULL",0,"NULL","NULL","[""img/3.gif"",""img/4.gif"",""img/1.gif""]","NULL","NULL","NULL","NULL","NULL","NULL","NULL","NULL","NULL","NULL","2014-02-13 15:57:01","four-triple"
"379",19,"survey-likert","test",0,"22","2664","NULL","img/9.gif","img/8.gif","img/7.gif","img/3.gif","img/4.gif","img/1.gif","first","1","7","NULL","2014-02-13 15:57:01","four-triple"
"380",19,"vsl-animate-occlusion","NULL",0,"NULL","NULL","[""img/12.gif"",""img/11.gif"",""img/7.gif""]","NULL","NULL","NULL","NULL","NULL","NULL","NULL","NULL","NULL","NULL","2014-02-13 15:57:01","four-triple"
"381",19,"vsl-animate-occlusion","NULL",0,"NULL","NULL","[""img/12.gif"",""img/4.gif"",""img/2.gif""]","NULL","NULL","NULL","NULL","NULL","NULL","NULL","NULL","NULL","NULL","2014-02-13 15:57:01","four-triple"
"382",19,"survey-likert","test",0,"23","2726","NULL","img/12.gif","img/11.gif","img/7.gif","img/12.gif","img/4.gif","img/2.gif","second","3","7","NULL","2014-02-13 15:57:01","four-triple"
"383",19,"vsl-animate-occlusion","NULL",0,"NULL","NULL","[""img/9.gif"",""img/8.gif"",""img/7.gif""]","NULL","NULL","NULL","NULL","NULL","NULL","NULL","NULL","NULL","NULL","2014-02-13 15:57:01","four-triple"
"384",19,"vsl-animate-occlusion","NULL",0,"NULL","NULL","[""img/10.gif"",""img/8.gif"",""img/5.gif""]","NULL","NULL","NULL","NULL","NULL","NULL","NULL","NULL","NULL","NULL","2014-02-13 15:57:01","four-triple"
"385",19,"survey-likert","test",0,"24","2991","NULL","img/9.gif","img/8.gif","img/7.gif","img/10.gif","img/8.gif","img/5.gif","first","1","7","NULL","2014-02-13 15:57:01","four-triple"
"386",19,"vsl-animate-occlusion","NULL",0,"NULL","NULL","[""img/10.gif"",""img/8.gif"",""img/5.gif""]","NULL","NULL","NULL","NULL","NULL","NULL","NULL","NULL","NULL","NULL","2014-02-13 15:57:01","four-triple"
"387",19,"vsl-animate-occlusion","NULL",0,"NULL","NULL","[""img/9.gif"",""img/8.gif"",""img/7.gif""]","NULL","NULL","NULL","NULL","NULL","NULL","NULL","NULL","NULL","NULL","2014-02-13 15:57:01","four-triple"
"388",19,"survey-likert","test",0,"25","2457","NULL","img/10.gif","img/8.gif","img/5.gif","img/9.gif","img/8.gif","img/7.gif","second","3","7","NULL","2014-02-13 15:57:01","four-triple"
"389",19,"vsl-animate-occlusion","NULL",0,"NULL","NULL","[""img/3.gif"",""img/6.gif"",""img/5.gif""]","NULL","NULL","NULL","NULL","NULL","NULL","NULL","NULL","NULL","NULL","2014-02-13 15:57:01","four-triple"
"390",19,"vsl-animate-occlusion","NULL",0,"NULL","NULL","[""img/10.gif"",""img/8.gif"",""img/5.gif""]","NULL","NULL","NULL","NULL","NULL","NULL","NULL","NULL","NULL","NULL","2014-02-13 15:57:01","four-triple"
"391",19,"survey-likert","test",0,"26","3143","NULL","img/3.gif","img/6.gif","img/5.gif","img/10.gif","img/8.gif","img/5.gif","first","1","7","NULL","2014-02-13 15:57:01","four-triple"
"392",19,"vsl-animate-occlusion","NULL",0,"NULL","NULL","[""img/10.gif"",""img/8.gif"",""img/5.gif""]","NULL","NULL","NULL","NULL","NULL","NULL","NULL","NULL","NULL","NULL","2014-02-13 15:57:01","four-triple"
"393",19,"vsl-animate-occlusion","NULL",0,"NULL","NULL","[""img/10.gif"",""img/11.gif"",""img/1.gif""]","NULL","NULL","NULL","NULL","NULL","NULL","NULL","NULL","NULL","NULL","2014-02-13 15:57:01","four-triple"
"394",19,"survey-likert","test",0,"27","2332","NULL","img/10.gif","img/8.gif","img/5.gif","img/10.gif","img/11.gif","img/1.gif","second","3","7","NULL","2014-02-13 15:57:01","four-triple"
"395",19,"vsl-animate-occlusion","NULL",0,"NULL","NULL","[""img/3.gif"",""img/4.gif"",""img/1.gif""]","NULL","NULL","NULL","NULL","NULL","NULL","NULL","NULL","NULL","NULL","2014-02-13 15:57:01","four-triple"
"396",19,"vsl-animate-occlusion","NULL",0,"NULL","NULL","[""img/12.gif"",""img/4.gif"",""img/2.gif""]","NULL","NULL","NULL","NULL","NULL","NULL","NULL","NULL","NULL","NULL","2014-02-13 15:57:01","four-triple"
"397",19,"survey-likert","test",0,"28","2451","NULL","img/3.gif","img/4.gif","img/1.gif","img/12.gif","img/4.gif","img/2.gif","second","3","7","NULL","2014-02-13 15:57:01","four-triple"
"398",19,"vsl-animate-occlusion","NULL",0,"NULL","NULL","[""img/10.gif"",""img/11.gif"",""img/1.gif""]","NULL","NULL","NULL","NULL","NULL","NULL","NULL","NULL","NULL","NULL","2014-02-13 15:57:01","four-triple"
"399",19,"vsl-animate-occlusion","NULL",0,"NULL","NULL","[""img/9.gif"",""img/6.gif"",""img/2.gif""]","NULL","NULL","NULL","NULL","NULL","NULL","NULL","NULL","NULL","NULL","2014-02-13 15:57:01","four-triple"
"400",19,"survey-likert","test",0,"29","3153","NULL","img/10.gif","img/11.gif","img/1.gif","img/9.gif","img/6.gif","img/2.gif","first","1","7","NULL","2014-02-13 15:57:01","four-triple"
"401",19,"vsl-animate-occlusion","NULL",0,"NULL","NULL","[""img/12.gif"",""img/4.gif"",""img/2.gif""]","NULL","NULL","NULL","NULL","NULL","NULL","NULL","NULL","NULL","NULL","2014-02-13 15:57:01","four-triple"
"402",19,"vsl-animate-occlusion","NULL",0,"NULL","NULL","[""img/10.gif"",""img/8.gif"",""img/5.gif""]","NULL","NULL","NULL","NULL","NULL","NULL","NULL","NULL","NULL","NULL","2014-02-13 15:57:01","four-triple"
"403",19,"survey-likert","test",0,"30","2749","NULL","img/12.gif","img/4.gif","img/2.gif","img/10.gif","img/8.gif","img/5.gif","first","1","7","NULL","2014-02-13 15:57:01","four-triple"
"404",19,"vsl-animate-occlusion","NULL",0,"NULL","NULL","[""img/3.gif"",""img/6.gif"",""img/5.gif""]","NULL","NULL","NULL","NULL","NULL","NULL","NULL","NULL","NULL","NULL","2014-02-13 15:57:01","four-triple"
"405",19,"vsl-animate-occlusion","NULL",0,"NULL","NULL","[""img/3.gif"",""img/4.gif"",""img/1.gif""]","NULL","NULL","NULL","NULL","NULL","NULL","NULL","NULL","NULL","NULL","2014-02-13 15:57:01","four-triple"
"406",19,"survey-likert","test",0,"31","2701","NULL","img/3.gif","img/6.gif","img/5.gif","img/3.gif","img/4.gif","img/1.gif","first","1","5","NULL","2014-02-13 15:57:01","four-triple"
"407",19,"text","NULL",0,"NULL","5168","NULL","NULL","NULL","NULL","NULL","NULL","NULL","NULL","NULL","NULL","NULL","2014-02-13 15:57:01","four-triple"
"408",19,"survey-likert","attention",0,"NULL","10751","NULL","NULL","NULL","NULL","NULL","NULL","NULL","NULL","21","NULL","NULL","2014-02-13 15:57:01","four-triple"
"409",12,"html","NULL",0,"NULL","9373","NULL","NULL","NULL","NULL","NULL","NULL","NULL","NULL","NULL","NULL","consent.html","2014-02-13 15:57:50","four-triple"
"410",12,"text","NULL",0,"NULL","18121","NULL","NULL","NULL","NULL","NULL","NULL","NULL","NULL","NULL","NULL","NULL","2014-02-13 15:57:50","four-triple"
